Time(ms)	Membrane_Voltage(mV)
-5	-85.75
-4.9	-85.75
-4.8	-85.7501
-4.7	-85.7501
-4.6	-85.7501
-4.5	-85.7501
-4.4	-85.7501
-4.3	-85.7501
-4.2	-85.7502
-4.1	-85.7502
-4	-85.7502
-3.9	-85.7502
-3.8	-85.7502
-3.7	-85.7502
-3.6	-85.7503
-3.5	-85.7503
-3.4	-85.7503
-3.3	-85.7503
-3.2	-85.7503
-3.1	-85.7503
-3	-85.7504
-2.9	-85.7504
-2.8	-85.7504
-2.7	-85.7504
-2.6	-85.7504
-2.5	-85.7504
-2.4	-85.7505
-2.3	-85.7505
-2.2	-85.7505
-2.1	-85.7505
-2	-85.7505
-1.9	-85.7505
-1.8	-85.7506
-1.7	-85.7506
-1.6	-85.7506
-1.5	-85.7506
-1.4	-85.7506
-1.3	-85.7506
-1.2	-85.7507
-1.1	-85.7507
-1	-85.7507
-0.9	-85.7507
-0.8	-85.7507
-0.7	-85.7507
-0.6	-85.7508
-0.5	-85.7508
-0.4	-85.7508
-0.3	-85.7508
-0.2	-85.7508
-0.1	-85.7508
0	-85.7509
0.1	-84.2717
0.2	-82.8303
0.3	-81.4211
0.4	-80.0397
0.5	-78.6818
0.6	-77.3435
0.7	-76.0215
0.8	-74.7125
0.9	-73.4136
1	-72.1222
1.1	-70.8358
1.2	-69.5524
1.3	-68.2699
1.4	-66.9863
1.5	-65.6999
1.6	-64.4085
1.7	-63.1097
1.8	-61.8005
1.9	-60.4762
2	-59.13
2.1	-57.751
2.2	-56.3214
2.3	-54.8117
2.4	-53.1708
2.5	-51.3068
2.6	-49.0421
2.7	-45.9971
2.8	-41.2588
2.9	-32.5262
3	-15.8206
3.1	3.31992
3.2	14.8103
3.3	19.4144
3.4	20.7084
3.5	20.5387
3.6	19.738
3.7	18.6872
3.8	17.5652
3.9	16.4577
4	15.4052
4.1	14.4243
4.2	13.5185
4.3	12.6839
4.4	11.9128
4.5	11.196
4.6	10.5242
4.7	9.88912
4.8	9.2836
4.9	8.70186
5	8.13943
5.1	7.59296
5.2	7.06007
5.3	6.53913
5.4	6.02911
5.5	5.52939
5.6	5.03971
5.7	4.56
5.8	4.09033
5.9	3.63086
6	3.18178
6.1	2.74327
6.2	2.31552
6.3	1.89865
6.4	1.49274
6.5	1.09785
6.6	0.713964
6.7	0.341025
6.8	-0.0210635
6.9	-0.372442
7	-0.713282
7.1	-1.04379
7.2	-1.36418
7.3	-1.6747
7.4	-1.97562
7.5	-2.2672
7.6	-2.54971
7.7	-2.82343
7.8	-3.08866
7.9	-3.34566
8	-3.59472
8.1	-3.83611
8.2	-4.07011
8.3	-4.29697
8.4	-4.51696
8.5	-4.73034
8.6	-4.93734
8.7	-5.13819
8.8	-5.33314
8.9	-5.5224
9	-5.70619
9.1	-5.88471
9.2	-6.05816
9.3	-6.22673
9.4	-6.3906
9.5	-6.54995
9.6	-6.70496
9.7	-6.85578
9.8	-7.00256
9.9	-7.14547
10	-7.28464
10.1	-7.4202
10.2	-7.55231
10.3	-7.68107
10.4	-7.80661
10.5	-7.92905
10.6	-8.0485
10.7	-8.16507
10.8	-8.27886
10.9	-8.38996
11	-8.49848
11.1	-8.6045
11.2	-8.70812
11.3	-8.8094
11.4	-8.90844
11.5	-9.00532
11.6	-9.10009
11.7	-9.19284
11.8	-9.28364
11.9	-9.37254
12	-9.45962
12.1	-9.54492
12.2	-9.62852
12.3	-9.71046
12.4	-9.79079
12.5	-9.86958
12.6	-9.94686
12.7	-10.0227
12.8	-10.0971
12.9	-10.1702
13	-10.2419
13.1	-10.3123
13.2	-10.3815
13.3	-10.4495
13.4	-10.5163
13.5	-10.582
13.6	-10.6466
13.7	-10.7101
13.8	-10.7726
13.9	-10.834
14	-10.8945
14.1	-10.954
14.2	-11.0126
14.3	-11.0703
14.4	-11.1271
14.5	-11.183
14.6	-11.2381
14.7	-11.2924
14.8	-11.3459
14.9	-11.3987
15	-11.4507
15.1	-11.5019
15.2	-11.5525
15.3	-11.6024
15.4	-11.6515
15.5	-11.7
15.6	-11.7479
15.7	-11.7952
15.8	-11.8418
15.9	-11.8878
16	-11.9332
16.1	-11.9781
16.2	-12.0224
16.3	-12.0661
16.4	-12.1093
16.5	-12.152
16.6	-12.1942
16.7	-12.2358
16.8	-12.277
16.9	-12.3176
17	-12.3578
17.1	-12.3976
17.2	-12.4368
17.3	-12.4756
17.4	-12.514
17.5	-12.5519
17.6	-12.5894
17.7	-12.6265
17.8	-12.6632
17.9	-12.6995
18	-12.7353
18.1	-12.7708
18.2	-12.8059
18.3	-12.8406
18.4	-12.8749
18.5	-12.9089
18.6	-12.9425
18.7	-12.9757
18.8	-13.0086
18.9	-13.0411
19	-13.0733
19.1	-13.1051
19.2	-13.1366
19.3	-13.1677
19.4	-13.1985
19.5	-13.229
19.6	-13.2592
19.7	-13.289
19.8	-13.3186
19.9	-13.3478
20	-13.3767
20.1	-13.4053
20.2	-13.4335
20.3	-13.4615
20.4	-13.4892
20.5	-13.5166
20.6	-13.5436
20.7	-13.5704
20.8	-13.5969
20.9	-13.6231
21	-13.649
21.1	-13.6746
21.2	-13.6999
21.3	-13.725
21.4	-13.7497
21.5	-13.7742
21.6	-13.7984
21.7	-13.8223
21.8	-13.8459
21.9	-13.8693
22	-13.8923
22.1	-13.9151
22.2	-13.9377
22.3	-13.9599
22.4	-13.9819
22.5	-14.0036
22.6	-14.025
22.7	-14.0462
22.8	-14.0671
22.9	-14.0877
23	-14.108
23.1	-14.1281
23.2	-14.1479
23.3	-14.1675
23.4	-14.1867
23.5	-14.2057
23.6	-14.2244
23.7	-14.2429
23.8	-14.2611
23.9	-14.279
24	-14.2967
24.1	-14.3141
24.2	-14.3312
24.3	-14.348
24.4	-14.3646
24.5	-14.3809
24.6	-14.3969
24.7	-14.4127
24.8	-14.4282
24.9	-14.4434
25	-14.4584
25.1	-14.4731
25.2	-14.4875
25.3	-14.5016
25.4	-14.5155
25.5	-14.5291
25.6	-14.5424
25.7	-14.5555
25.8	-14.5683
25.9	-14.5808
26	-14.593
26.1	-14.605
26.2	-14.6167
26.3	-14.6281
26.4	-14.6392
26.5	-14.65
26.6	-14.6606
26.7	-14.6709
26.8	-14.6809
26.9	-14.6907
27	-14.7001
27.1	-14.7093
27.2	-14.7182
27.3	-14.7268
27.4	-14.7351
27.5	-14.7432
27.6	-14.7509
27.7	-14.7584
27.8	-14.7656
27.9	-14.7725
28	-14.7791
28.1	-14.7854
28.2	-14.7915
28.3	-14.7972
28.4	-14.8027
28.5	-14.8078
28.6	-14.8127
28.7	-14.8173
28.8	-14.8216
28.9	-14.8256
29	-14.8293
29.1	-14.8327
29.2	-14.8358
29.3	-14.8386
29.4	-14.8411
29.5	-14.8433
29.6	-14.8452
29.7	-14.8469
29.8	-14.8482
29.9	-14.8492
30	-14.8499
30.1	-14.8503
30.2	-14.8504
30.3	-14.8502
30.4	-14.8497
30.5	-14.8489
30.6	-14.8478
30.7	-14.8464
30.8	-14.8447
30.9	-14.8427
31	-14.8403
31.1	-14.8377
31.2	-14.8348
31.3	-14.8315
31.4	-14.8279
31.5	-14.824
31.6	-14.8198
31.7	-14.8153
31.8	-14.8105
31.9	-14.8054
32	-14.7999
32.1	-14.7942
32.2	-14.7881
32.3	-14.7817
32.4	-14.775
32.5	-14.768
32.6	-14.7606
32.7	-14.753
32.8	-14.745
32.9	-14.7367
33	-14.728
33.1	-14.7191
33.2	-14.7098
33.3	-14.7002
33.4	-14.6903
33.5	-14.6801
33.6	-14.6695
33.7	-14.6586
33.8	-14.6474
33.9	-14.6359
34	-14.624
34.1	-14.6118
34.2	-14.5993
34.3	-14.5864
34.4	-14.5732
34.5	-14.5597
34.6	-14.5459
34.7	-14.5317
34.8	-14.5172
34.9	-14.5023
35	-14.4871
35.1	-14.4716
35.2	-14.4557
35.3	-14.4395
35.4	-14.423
35.5	-14.4061
35.6	-14.3889
35.7	-14.3714
35.8	-14.3535
35.9	-14.3353
36	-14.3167
36.1	-14.2978
36.2	-14.2785
36.3	-14.2589
36.4	-14.2389
36.5	-14.2186
36.6	-14.198
36.7	-14.177
36.8	-14.1556
36.9	-14.1339
37	-14.1119
37.1	-14.0895
37.2	-14.0667
37.3	-14.0436
37.4	-14.0202
37.5	-13.9963
37.6	-13.9722
37.7	-13.9477
37.8	-13.9228
37.9	-13.8975
38	-13.8719
38.1	-13.846
38.2	-13.8196
38.3	-13.793
38.4	-13.7659
38.5	-13.7385
38.6	-13.7107
38.7	-13.6826
38.8	-13.6541
38.9	-13.6252
39	-13.596
39.1	-13.5664
39.2	-13.5364
39.3	-13.506
39.4	-13.4753
39.5	-13.4442
39.6	-13.4127
39.7	-13.3809
39.8	-13.3487
39.9	-13.3161
40	-13.2831
40.1	-13.2497
40.2	-13.216
40.3	-13.1819
40.4	-13.1474
40.5	-13.1125
40.6	-13.0772
40.7	-13.0416
40.8	-13.0055
40.9	-12.9691
41	-12.9323
41.1	-12.8951
41.2	-12.8575
41.3	-12.8195
41.4	-12.7811
41.5	-12.7424
41.6	-12.7032
41.7	-12.6636
41.8	-12.6237
41.9	-12.5833
42	-12.5425
42.1	-12.5014
42.2	-12.4598
42.3	-12.4178
42.4	-12.3755
42.5	-12.3327
42.6	-12.2895
42.7	-12.2459
42.8	-12.2019
42.9	-12.1575
43	-12.1126
43.1	-12.0674
43.2	-12.0217
43.3	-11.9757
43.4	-11.9292
43.5	-11.8823
43.6	-11.8349
43.7	-11.7872
43.8	-11.739
43.9	-11.6904
44	-11.6413
44.1	-11.5919
44.2	-11.542
44.3	-11.4917
44.4	-11.4409
44.5	-11.3897
44.6	-11.3381
44.7	-11.2861
44.8	-11.2336
44.9	-11.1806
45	-11.1273
45.1	-11.0734
45.2	-11.0192
45.3	-10.9645
45.4	-10.9093
45.5	-10.8537
45.6	-10.7976
45.7	-10.7411
45.8	-10.6842
45.9	-10.6267
46	-10.5689
46.1	-10.5105
46.2	-10.4517
46.3	-10.3925
46.4	-10.3327
46.5	-10.2725
46.6	-10.2119
46.7	-10.1508
46.8	-10.0892
46.9	-10.0271
47	-9.96454
47.1	-9.90152
47.2	-9.83802
47.3	-9.77404
47.4	-9.70958
47.5	-9.64463
47.6	-9.5792
47.7	-9.51329
47.8	-9.44688
47.9	-9.37999
48	-9.3126
48.1	-9.24472
48.2	-9.17634
48.3	-9.10746
48.4	-9.03809
48.5	-8.96821
48.6	-8.89783
48.7	-8.82695
48.8	-8.75556
48.9	-8.68366
49	-8.61125
49.1	-8.53833
49.2	-8.46489
49.3	-8.39094
49.4	-8.31648
49.5	-8.24149
49.6	-8.16598
49.7	-8.08995
49.8	-8.0134
49.9	-7.93632
50	-7.85871
50.1	-7.78058
50.2	-7.70191
50.3	-7.62271
50.4	-7.54298
50.5	-7.46271
50.6	-7.3819
50.7	-7.30055
50.8	-7.21867
50.9	-7.13624
51	-7.05327
51.1	-6.96975
51.2	-6.88569
51.3	-6.80109
51.4	-6.71593
51.5	-6.63022
51.6	-6.54396
51.7	-6.45715
51.8	-6.36979
51.9	-6.28187
52	-6.1934
52.1	-6.10437
52.2	-6.01479
52.3	-5.92464
52.4	-5.83394
52.5	-5.74268
52.6	-5.65086
52.7	-5.55848
52.8	-5.46553
52.9	-5.37203
53	-5.27796
53.1	-5.18333
53.2	-5.08815
53.3	-4.99239
53.4	-4.89608
53.5	-4.7992
53.6	-4.70177
53.7	-4.60377
53.8	-4.50521
53.9	-4.40609
54	-4.30642
54.1	-4.20618
54.2	-4.10539
54.3	-4.00404
54.4	-3.90214
54.5	-3.79968
54.6	-3.69668
54.7	-3.59312
54.8	-3.48902
54.9	-3.38437
55	-3.27917
55.1	-3.17344
55.2	-3.06716
55.3	-2.96035
55.4	-2.85301
55.5	-2.74514
55.6	-2.63675
55.7	-2.52783
55.8	-2.41839
55.9	-2.30844
56	-2.19797
56.1	-2.087
56.2	-1.97554
56.3	-1.86357
56.4	-1.75111
56.5	-1.63817
56.6	-1.52475
56.7	-1.41086
56.8	-1.29649
56.9	-1.18167
57	-1.06639
57.1	-0.950666
57.2	-0.834501
57.3	-0.717903
57.4	-0.600881
57.5	-0.483443
57.6	-0.365597
57.7	-0.247352
57.8	-0.128716
57.9	-0.00970003
58	0.109687
58.1	0.229436
58.2	0.349535
58.3	0.469975
58.4	0.590745
58.5	0.711833
58.6	0.833227
58.7	0.954918
58.8	1.07689
58.9	1.19914
59	1.32164
59.1	1.44439
59.2	1.56737
59.3	1.69057
59.4	1.81397
59.5	1.93756
59.6	2.06134
59.7	2.18527
59.8	2.30935
59.9	2.43356
60	2.55789
60.1	2.68233
60.2	2.80684
60.3	2.93143
60.4	3.05607
60.5	3.18075
60.6	3.30545
60.7	3.43015
60.8	3.55484
60.9	3.6795
61	3.80412
61.1	3.92867
61.2	4.05314
61.3	4.17751
61.4	4.30176
61.5	4.42588
61.6	4.54985
61.7	4.67365
61.8	4.79727
61.9	4.92068
62	5.04386
62.1	5.16681
62.2	5.2895
62.3	5.41192
62.4	5.53405
62.5	5.65586
62.6	5.77736
62.7	5.8985
62.8	6.01929
62.9	6.1397
63	6.25972
63.1	6.37933
63.2	6.49851
63.3	6.61724
63.4	6.73553
63.5	6.85333
63.6	6.97065
63.7	7.08746
63.8	7.20376
63.9	7.31952
64	7.43473
64.1	7.54938
64.2	7.66346
64.3	7.77695
64.4	7.88984
64.5	8.00211
64.6	8.11375
64.7	8.22476
64.8	8.33512
64.9	8.44481
65	8.55383
65.1	8.66217
65.2	8.76981
65.3	8.87675
65.4	8.98298
65.5	9.08849
65.6	9.19326
65.7	9.2973
65.8	9.40059
65.9	9.50312
66	9.60489
66.1	9.70589
66.2	9.80611
66.3	9.90556
66.4	10.0042
66.5	10.1021
66.6	10.1991
66.7	10.2954
66.8	10.3908
66.9	10.4855
67	10.5793
67.1	10.6723
67.2	10.7645
67.3	10.8558
67.4	10.9463
67.5	11.036
67.6	11.1249
67.7	11.2129
67.8	11.3001
67.9	11.3864
68	11.4719
68.1	11.5566
68.2	11.6404
68.3	11.7234
68.4	11.8056
68.5	11.8869
68.6	11.9674
68.7	12.047
68.8	12.1258
68.9	12.2037
69	12.2809
69.1	12.3572
69.2	12.4326
69.3	12.5073
69.4	12.5811
69.5	12.654
69.6	12.7262
69.7	12.7975
69.8	12.8681
69.9	12.9378
70	13.0067
70.1	13.0748
70.2	13.142
70.3	13.2085
70.4	13.2742
70.5	13.3391
70.6	13.4032
70.7	13.4665
70.8	13.529
70.9	13.5908
71	13.6517
71.1	13.7119
71.2	13.7714
71.3	13.8301
71.4	13.888
71.5	13.9451
71.6	14.0015
71.7	14.0572
71.8	14.1121
71.9	14.1663
72	14.2198
72.1	14.2725
72.2	14.3245
72.3	14.3758
72.4	14.4264
72.5	14.4763
72.6	14.5254
72.7	14.5739
72.8	14.6217
72.9	14.6688
73	14.7152
73.1	14.7609
73.2	14.806
73.3	14.8504
73.4	14.8941
73.5	14.9372
73.6	14.9796
73.7	15.0213
73.8	15.0625
73.9	15.1029
74	15.1428
74.1	15.182
74.2	15.2206
74.3	15.2586
74.4	15.2959
74.5	15.3327
74.6	15.3688
74.7	15.4044
74.8	15.4393
74.9	15.4737
75	15.5074
75.1	15.5406
75.2	15.5732
75.3	15.6053
75.4	15.6367
75.5	15.6677
75.6	15.698
75.7	15.7278
75.8	15.7571
75.9	15.7858
76	15.8139
76.1	15.8416
76.2	15.8687
76.3	15.8952
76.4	15.9213
76.5	15.9468
76.6	15.9718
76.7	15.9964
76.8	16.0204
76.9	16.0439
77	16.0669
77.1	16.0894
77.2	16.1114
77.3	16.133
77.4	16.1541
77.5	16.1746
77.6	16.1948
77.7	16.2144
77.8	16.2336
77.9	16.2524
78	16.2706
78.1	16.2885
78.2	16.3058
78.3	16.3228
78.4	16.3393
78.5	16.3553
78.6	16.371
78.7	16.3862
78.8	16.4009
78.9	16.4153
79	16.4292
79.1	16.4427
79.2	16.4558
79.3	16.4686
79.4	16.4809
79.5	16.4928
79.6	16.5043
79.7	16.5154
79.8	16.5261
79.9	16.5364
80	16.5464
80.1	16.556
80.2	16.5651
80.3	16.574
80.4	16.5824
80.5	16.5905
80.6	16.5982
80.7	16.6056
80.8	16.6126
80.9	16.6193
81	16.6256
81.1	16.6315
81.2	16.6371
81.3	16.6424
81.4	16.6473
81.5	16.6519
81.6	16.6562
81.7	16.6601
81.8	16.6637
81.9	16.667
82	16.6699
82.1	16.6725
82.2	16.6749
82.3	16.6769
82.4	16.6786
82.5	16.6799
82.6	16.681
82.7	16.6818
82.8	16.6823
82.9	16.6824
83	16.6823
83.1	16.6819
83.2	16.6812
83.3	16.6802
83.4	16.6789
83.5	16.6774
83.6	16.6755
83.7	16.6734
83.8	16.671
83.9	16.6684
84	16.6654
84.1	16.6622
84.2	16.6587
84.3	16.655
84.4	16.651
84.5	16.6467
84.6	16.6422
84.7	16.6375
84.8	16.6324
84.9	16.6272
85	16.6216
85.1	16.6159
85.2	16.6098
85.3	16.6036
85.4	16.5971
85.5	16.5904
85.6	16.5834
85.7	16.5762
85.8	16.5687
85.9	16.5611
86	16.5532
86.1	16.545
86.2	16.5367
86.3	16.5281
86.4	16.5193
86.5	16.5103
86.6	16.5011
86.7	16.4916
86.8	16.482
86.9	16.4721
87	16.462
87.1	16.4517
87.2	16.4412
87.3	16.4305
87.4	16.4196
87.5	16.4085
87.6	16.3972
87.7	16.3857
87.8	16.374
87.9	16.3621
88	16.35
88.1	16.3378
88.2	16.3253
88.3	16.3126
88.4	16.2998
88.5	16.2868
88.6	16.2735
88.7	16.2602
88.8	16.2466
88.9	16.2328
89	16.2189
89.1	16.2048
89.2	16.1905
89.3	16.1761
89.4	16.1614
89.5	16.1466
89.6	16.1317
89.7	16.1166
89.8	16.1013
89.9	16.0858
90	16.0702
90.1	16.0544
90.2	16.0384
90.3	16.0223
90.4	16.0061
90.5	15.9897
90.6	15.9731
90.7	15.9564
90.8	15.9395
90.9	15.9224
91	15.9053
91.1	15.8879
91.2	15.8705
91.3	15.8528
91.4	15.8351
91.5	15.8171
91.6	15.7991
91.7	15.7809
91.8	15.7626
91.9	15.7441
92	15.7255
92.1	15.7067
92.2	15.6878
92.3	15.6688
92.4	15.6496
92.5	15.6304
92.6	15.6109
92.7	15.5914
92.8	15.5717
92.9	15.5519
93	15.532
93.1	15.5119
93.2	15.4917
93.3	15.4714
93.4	15.451
93.5	15.4304
93.6	15.4098
93.7	15.389
93.8	15.3681
93.9	15.347
94	15.3259
94.1	15.3046
94.2	15.2832
94.3	15.2618
94.4	15.2401
94.5	15.2184
94.6	15.1966
94.7	15.1747
94.8	15.1526
94.9	15.1305
95	15.1082
95.1	15.0858
95.2	15.0634
95.3	15.0408
95.4	15.0181
95.5	14.9953
95.6	14.9724
95.7	14.9494
95.8	14.9263
95.9	14.9031
96	14.8799
96.1	14.8565
96.2	14.833
96.3	14.8094
96.4	14.7857
96.5	14.762
96.6	14.7381
96.7	14.7141
96.8	14.6901
96.9	14.6659
97	14.6417
97.1	14.6174
97.2	14.593
97.3	14.5685
97.4	14.5439
97.5	14.5192
97.6	14.4944
97.7	14.4696
97.8	14.4446
97.9	14.4196
98	14.3945
98.1	14.3693
98.2	14.3441
98.3	14.3187
98.4	14.2933
98.5	14.2678
98.6	14.2422
98.7	14.2165
98.8	14.1907
98.9	14.1649
99	14.139
99.1	14.113
99.2	14.087
99.3	14.0608
99.4	14.0346
99.5	14.0083
99.6	13.982
99.7	13.9556
99.8	13.9291
99.9	13.9025
100	13.8758
100.1	13.8491
100.2	13.8223
100.3	13.7955
100.4	13.7686
100.5	13.7416
100.6	13.7145
100.7	13.6874
100.8	13.6602
100.9	13.633
101	13.6056
101.1	13.5782
101.2	13.5508
101.3	13.5233
101.4	13.4957
101.5	13.4681
101.6	13.4403
101.7	13.4126
101.8	13.3848
101.9	13.3569
102	13.3289
102.1	13.3009
102.2	13.2728
102.3	13.2447
102.4	13.2165
102.5	13.1883
102.6	13.16
102.7	13.1316
102.8	13.1032
102.9	13.0747
103	13.0462
103.1	13.0176
103.2	12.989
103.3	12.9603
103.4	12.9315
103.5	12.9027
103.6	12.8739
103.7	12.845
103.8	12.816
103.9	12.787
104	12.7579
104.1	12.7288
104.2	12.6997
104.3	12.6704
104.4	12.6412
104.5	12.6119
104.6	12.5825
104.7	12.5531
104.8	12.5236
104.9	12.4941
105	12.4646
105.1	12.435
105.2	12.4053
105.3	12.3756
105.4	12.3459
105.5	12.3161
105.6	12.2862
105.7	12.2564
105.8	12.2264
105.9	12.1965
106	12.1664
106.1	12.1364
106.2	12.1063
106.3	12.0761
106.4	12.0459
106.5	12.0157
106.6	11.9854
106.7	11.9551
106.8	11.9248
106.9	11.8944
107	11.8639
107.1	11.8334
107.2	11.8029
107.3	11.7724
107.4	11.7417
107.5	11.7111
107.6	11.6804
107.7	11.6497
107.8	11.6189
107.9	11.5881
108	11.5573
108.1	11.5264
108.2	11.4955
108.3	11.4646
108.4	11.4336
108.5	11.4025
108.6	11.3715
108.7	11.3404
108.8	11.3092
108.9	11.2781
109	11.2469
109.1	11.2156
109.2	11.1843
109.3	11.153
109.4	11.1217
109.5	11.0903
109.6	11.0589
109.7	11.0274
109.8	10.9959
109.9	10.9644
110	10.9328
110.1	10.9013
110.2	10.8696
110.3	10.838
110.4	10.8063
110.5	10.7746
110.6	10.7428
110.7	10.711
110.8	10.6792
110.9	10.6473
111	10.6155
111.1	10.5835
111.2	10.5516
111.3	10.5196
111.4	10.4876
111.5	10.4556
111.6	10.4235
111.7	10.3914
111.8	10.3593
111.9	10.3271
112	10.2949
112.1	10.2627
112.2	10.2304
112.3	10.1981
112.4	10.1658
112.5	10.1335
112.6	10.1011
112.7	10.0687
112.8	10.0363
112.9	10.0038
113	9.97132
113.1	9.93881
113.2	9.90626
113.3	9.87368
113.4	9.84108
113.5	9.80845
113.6	9.77578
113.7	9.7431
113.8	9.71038
113.9	9.67763
114	9.64486
114.1	9.61206
114.2	9.57923
114.3	9.54638
114.4	9.5135
114.5	9.48059
114.6	9.44765
114.7	9.41469
114.8	9.38169
114.9	9.34868
115	9.31563
115.1	9.28256
115.2	9.24946
115.3	9.21634
115.4	9.18318
115.5	9.15001
115.6	9.1168
115.7	9.08357
115.8	9.05031
115.9	9.01703
116	8.98372
116.1	8.95039
116.2	8.91702
116.3	8.88364
116.4	8.85022
116.5	8.81679
116.6	8.78332
116.7	8.74983
116.8	8.71631
116.9	8.68277
117	8.64921
117.1	8.61561
117.2	8.58199
117.3	8.54835
117.4	8.51468
117.5	8.48099
117.6	8.44727
117.7	8.41352
117.8	8.37975
117.9	8.34595
118	8.31213
118.1	8.27829
118.2	8.24442
118.3	8.21052
118.4	8.1766
118.5	8.14265
118.6	8.10868
118.7	8.07468
118.8	8.04066
118.9	8.00661
119	7.97254
119.1	7.93844
119.2	7.90432
119.3	7.87017
119.4	7.836
119.5	7.8018
119.6	7.76758
119.7	7.73333
119.8	7.69906
119.9	7.66476
120	7.63044
120.1	7.5961
120.2	7.56172
120.3	7.52733
120.4	7.4929
120.5	7.45846
120.6	7.42398
120.7	7.38949
120.8	7.35496
120.9	7.32042
121	7.28584
121.1	7.25124
121.2	7.21662
121.3	7.18197
121.4	7.1473
121.5	7.1126
121.6	7.07788
121.7	7.04313
121.8	7.00835
121.9	6.97355
122	6.93873
122.1	6.90388
122.2	6.869
122.3	6.8341
122.4	6.79917
122.5	6.76422
122.6	6.72924
122.7	6.69424
122.8	6.65921
122.9	6.62415
123	6.58907
123.1	6.55396
123.2	6.51883
123.3	6.48367
123.4	6.44849
123.5	6.41328
123.6	6.37804
123.7	6.34278
123.8	6.30749
123.9	6.27217
124	6.23683
124.1	6.20147
124.2	6.16607
124.3	6.13065
124.4	6.09521
124.5	6.05973
124.6	6.02423
124.7	5.98871
124.8	5.95315
124.9	5.91757
125	5.88197
125.1	5.84633
125.2	5.81067
125.3	5.77499
125.4	5.73927
125.5	5.70353
125.6	5.66776
125.7	5.63197
125.8	5.59614
125.9	5.56029
126	5.52441
126.1	5.48851
126.2	5.45258
126.3	5.41661
126.4	5.38063
126.5	5.34461
126.6	5.30856
126.7	5.27249
126.8	5.23639
126.9	5.20026
127	5.16411
127.1	5.12792
127.2	5.09171
127.3	5.05546
127.4	5.01919
127.5	4.98289
127.6	4.94657
127.7	4.91021
127.8	4.87382
127.9	4.83741
128	4.80097
128.1	4.76449
128.2	4.72799
128.3	4.69146
128.4	4.6549
128.5	4.61831
128.6	4.58169
128.7	4.54504
128.8	4.50836
128.9	4.47165
129	4.43491
129.1	4.39814
129.2	4.36134
129.3	4.32451
129.4	4.28765
129.5	4.25077
129.6	4.21384
129.7	4.17689
129.8	4.13991
129.9	4.1029
130	4.06586
130.1	4.02878
130.2	3.99168
130.3	3.95454
130.4	3.91737
130.5	3.88018
130.6	3.84295
130.7	3.80568
130.8	3.76839
130.9	3.73107
131	3.69371
131.1	3.65632
131.2	3.6189
131.3	3.58145
131.4	3.54396
131.5	3.50645
131.6	3.4689
131.7	3.43132
131.8	3.3937
131.9	3.35606
132	3.31838
132.1	3.28066
132.2	3.24292
132.3	3.20514
132.4	3.16733
132.5	3.12948
132.6	3.0916
132.7	3.05369
132.8	3.01575
132.9	2.97777
133	2.93976
133.1	2.90171
133.2	2.86363
133.3	2.82552
133.4	2.78737
133.5	2.74919
133.6	2.71097
133.7	2.67272
133.8	2.63443
133.9	2.59611
134	2.55776
134.1	2.51937
134.2	2.48095
134.3	2.44249
134.4	2.40399
134.5	2.36546
134.6	2.3269
134.7	2.2883
134.8	2.24966
134.9	2.21099
135	2.17228
135.1	2.13354
135.2	2.09476
135.3	2.05595
135.4	2.0171
135.5	1.97821
135.6	1.93929
135.7	1.90033
135.8	1.86134
135.9	1.82231
136	1.78324
136.1	1.74414
136.2	1.70499
136.3	1.66582
136.4	1.6266
136.5	1.58735
136.6	1.54806
136.7	1.50873
136.8	1.46937
136.9	1.42997
137	1.39053
137.1	1.35106
137.2	1.31154
137.3	1.27199
137.4	1.23241
137.5	1.19278
137.6	1.15312
137.7	1.11341
137.8	1.07367
137.9	1.0339
138	0.994079
138.1	0.954224
138.2	0.914331
138.3	0.8744
138.4	0.83443
138.5	0.794421
138.6	0.754374
138.7	0.714288
138.8	0.674163
138.9	0.633999
139	0.593797
139.1	0.553555
139.2	0.513274
139.3	0.472955
139.4	0.432595
139.5	0.392197
139.6	0.351759
139.7	0.311282
139.8	0.270766
139.9	0.23021
140	0.189614
140.1	0.148978
140.2	0.108303
140.3	0.0675884
140.4	0.0268336
140.5	-0.013961
140.6	-0.0547956
140.7	-0.0956702
140.8	-0.136585
140.9	-0.17754
141	-0.218534
141.1	-0.25957
141.2	-0.300645
141.3	-0.341761
141.4	-0.382917
141.5	-0.424113
141.6	-0.46535
141.7	-0.506627
141.8	-0.547945
141.9	-0.589304
142	-0.630703
142.1	-0.672143
142.2	-0.713623
142.3	-0.755144
142.4	-0.796706
142.5	-0.838309
142.6	-0.879952
142.7	-0.921637
142.8	-0.963362
142.9	-1.00513
143	-1.04694
143.1	-1.08878
143.2	-1.13067
143.3	-1.1726
143.4	-1.21457
143.5	-1.25659
143.6	-1.29864
143.7	-1.34073
143.8	-1.38287
143.9	-1.42504
144	-1.46726
144.1	-1.50952
144.2	-1.55182
144.3	-1.59416
144.4	-1.63654
144.5	-1.67897
144.6	-1.72143
144.7	-1.76394
144.8	-1.80649
144.9	-1.84907
145	-1.8917
145.1	-1.93437
145.2	-1.97709
145.3	-2.01984
145.4	-2.06263
145.5	-2.10547
145.6	-2.14835
145.7	-2.19126
145.8	-2.23422
145.9	-2.27722
146	-2.32026
146.1	-2.36334
146.2	-2.40647
146.3	-2.44963
146.4	-2.49284
146.5	-2.53608
146.6	-2.57937
146.7	-2.6227
146.8	-2.66607
146.9	-2.70948
147	-2.75293
147.1	-2.79642
147.2	-2.83995
147.3	-2.88353
147.4	-2.92714
147.5	-2.97079
147.6	-3.01449
147.7	-3.05822
147.8	-3.102
147.9	-3.14582
148	-3.18967
148.1	-3.23357
148.2	-3.27751
148.3	-3.32149
148.4	-3.36551
148.5	-3.40956
148.6	-3.45366
148.7	-3.4978
148.8	-3.54198
148.9	-3.5862
149	-3.63046
149.1	-3.67476
149.2	-3.71909
149.3	-3.76347
149.4	-3.80789
149.5	-3.85235
149.6	-3.89684
149.7	-3.94138
149.8	-3.98595
149.9	-4.03057
150	-4.07522
150.1	-4.11991
150.2	-4.16464
150.3	-4.20941
150.4	-4.25422
150.5	-4.29907
150.6	-4.34396
150.7	-4.38888
150.8	-4.43384
150.9	-4.47885
151	-4.52389
151.1	-4.56896
151.2	-4.61408
151.3	-4.65923
151.4	-4.70443
151.5	-4.74965
151.6	-4.79492
151.7	-4.84023
151.8	-4.88557
151.9	-4.93095
152	-4.97636
152.1	-5.02182
152.2	-5.06731
152.3	-5.11284
152.4	-5.1584
152.5	-5.204
152.6	-5.24964
152.7	-5.29531
152.8	-5.34102
152.9	-5.38677
153	-5.43255
153.1	-5.47837
153.2	-5.52422
153.3	-5.57011
153.4	-5.61603
153.5	-5.66199
153.6	-5.70799
153.7	-5.75402
153.8	-5.80009
153.9	-5.84619
154	-5.89232
154.1	-5.93849
154.2	-5.98469
154.3	-6.03093
154.4	-6.0772
154.5	-6.12351
154.6	-6.16985
154.7	-6.21622
154.8	-6.26263
154.9	-6.30907
155	-6.35555
155.1	-6.40206
155.2	-6.4486
155.3	-6.49517
155.4	-6.54177
155.5	-6.58841
155.6	-6.63508
155.7	-6.68179
155.8	-6.72852
155.9	-6.77529
156	-6.82209
156.1	-6.86892
156.2	-6.91578
156.3	-6.96267
156.4	-7.0096
156.5	-7.05655
156.6	-7.10354
156.7	-7.15056
156.8	-7.1976
156.9	-7.24468
157	-7.29179
157.1	-7.33893
157.2	-7.3861
157.3	-7.43329
157.4	-7.48052
157.5	-7.52778
157.6	-7.57506
157.7	-7.62238
157.8	-7.66972
157.9	-7.71709
158	-7.7645
158.1	-7.81193
158.2	-7.85938
158.3	-7.90687
158.4	-7.95438
158.5	-8.00192
158.6	-8.04949
158.7	-8.09709
158.8	-8.14471
158.9	-8.19237
159	-8.24004
159.1	-8.28775
159.2	-8.33548
159.3	-8.38324
159.4	-8.43102
159.5	-8.47883
159.6	-8.52667
159.7	-8.57453
159.8	-8.62242
159.9	-8.67033
160	-8.71827
160.1	-8.76623
160.2	-8.81422
160.3	-8.86224
160.4	-8.91027
160.5	-8.95834
160.6	-9.00642
160.7	-9.05454
160.8	-9.10267
160.9	-9.15083
161	-9.19901
161.1	-9.24722
161.2	-9.29545
161.3	-9.3437
161.4	-9.39198
161.5	-9.44027
161.6	-9.4886
161.7	-9.53694
161.8	-9.58531
161.9	-9.63369
162	-9.6821
162.1	-9.73054
162.2	-9.77899
162.3	-9.82747
162.4	-9.87596
162.5	-9.92448
162.6	-9.97302
162.7	-10.0216
162.8	-10.0702
162.9	-10.1188
163	-10.1674
163.1	-10.216
163.2	-10.2647
163.3	-10.3134
163.4	-10.3621
163.5	-10.4108
163.6	-10.4595
163.7	-10.5083
163.8	-10.5571
163.9	-10.6059
164	-10.6547
164.1	-10.7036
164.2	-10.7524
164.3	-10.8013
164.4	-10.8502
164.5	-10.8991
164.6	-10.948
164.7	-10.997
164.8	-11.0459
164.9	-11.0949
165	-11.1439
165.1	-11.193
165.2	-11.242
165.3	-11.291
165.4	-11.3401
165.5	-11.3892
165.6	-11.4383
165.7	-11.4874
165.8	-11.5366
165.9	-11.5857
166	-11.6349
166.1	-11.6841
166.2	-11.7333
166.3	-11.7825
166.4	-11.8318
166.5	-11.881
166.6	-11.9303
166.7	-11.9796
166.8	-12.0289
166.9	-12.0782
167	-12.1275
167.1	-12.1769
167.2	-12.2262
167.3	-12.2756
167.4	-12.325
167.5	-12.3744
167.6	-12.4238
167.7	-12.4732
167.8	-12.5227
167.9	-12.5721
168	-12.6216
168.1	-12.6711
168.2	-12.7206
168.3	-12.7701
168.4	-12.8197
168.5	-12.8692
168.6	-12.9188
168.7	-12.9684
168.8	-13.0179
168.9	-13.0675
169	-13.1172
169.1	-13.1668
169.2	-13.2164
169.3	-13.2661
169.4	-13.3157
169.5	-13.3654
169.6	-13.4151
169.7	-13.4648
169.8	-13.5145
169.9	-13.5643
170	-13.614
170.1	-13.6638
170.2	-13.7135
170.3	-13.7633
170.4	-13.8131
170.5	-13.8629
170.6	-13.9127
170.7	-13.9626
170.8	-14.0124
170.9	-14.0623
171	-14.1121
171.1	-14.162
171.2	-14.2119
171.3	-14.2618
171.4	-14.3117
171.5	-14.3616
171.6	-14.4116
171.7	-14.4615
171.8	-14.5115
171.9	-14.5615
172	-14.6115
172.1	-14.6615
172.2	-14.7115
172.3	-14.7615
172.4	-14.8115
172.5	-14.8616
172.6	-14.9116
172.7	-14.9617
172.8	-15.0118
172.9	-15.0619
173	-15.112
173.1	-15.1621
173.2	-15.2122
173.3	-15.2624
173.4	-15.3125
173.5	-15.3627
173.6	-15.4129
173.7	-15.463
173.8	-15.5132
173.9	-15.5635
174	-15.6137
174.1	-15.6639
174.2	-15.7142
174.3	-15.7644
174.4	-15.8147
174.5	-15.865
174.6	-15.9153
174.7	-15.9656
174.8	-16.0159
174.9	-16.0663
175	-16.1166
175.1	-16.167
175.2	-16.2173
175.3	-16.2677
175.4	-16.3181
175.5	-16.3685
175.6	-16.419
175.7	-16.4694
175.8	-16.5199
175.9	-16.5703
176	-16.6208
176.1	-16.6713
176.2	-16.7218
176.3	-16.7723
176.4	-16.8229
176.5	-16.8734
176.6	-16.924
176.7	-16.9746
176.8	-17.0252
176.9	-17.0758
177	-17.1264
177.1	-17.177
177.2	-17.2277
177.3	-17.2783
177.4	-17.329
177.5	-17.3797
177.6	-17.4304
177.7	-17.4812
177.8	-17.5319
177.9	-17.5827
178	-17.6335
178.1	-17.6843
178.2	-17.7351
178.3	-17.7859
178.4	-17.8368
178.5	-17.8876
178.6	-17.9385
178.7	-17.9894
178.8	-18.0403
178.9	-18.0913
179	-18.1422
179.1	-18.1932
179.2	-18.2442
179.3	-18.2952
179.4	-18.3462
179.5	-18.3973
179.6	-18.4484
179.7	-18.4995
179.8	-18.5506
179.9	-18.6017
180	-18.6529
180.1	-18.7041
180.2	-18.7553
180.3	-18.8065
180.4	-18.8577
180.5	-18.909
180.6	-18.9603
180.7	-19.0116
180.8	-19.063
180.9	-19.1143
181	-19.1657
181.1	-19.2171
181.2	-19.2686
181.3	-19.32
181.4	-19.3715
181.5	-19.4231
181.6	-19.4746
181.7	-19.5262
181.8	-19.5778
181.9	-19.6294
182	-19.6811
182.1	-19.7327
182.2	-19.7845
182.3	-19.8362
182.4	-19.888
182.5	-19.9398
182.6	-19.9916
182.7	-20.0435
182.8	-20.0954
182.9	-20.1473
183	-20.1993
183.1	-20.2513
183.2	-20.3033
183.3	-20.3554
183.4	-20.4075
183.5	-20.4596
183.6	-20.5118
183.7	-20.564
183.8	-20.6163
183.9	-20.6685
184	-20.7209
184.1	-20.7732
184.2	-20.8256
184.3	-20.8781
184.4	-20.9305
184.5	-20.9831
184.6	-21.0356
184.7	-21.0882
184.8	-21.1409
184.9	-21.1936
185	-21.2463
185.1	-21.2991
185.2	-21.3519
185.3	-21.4048
185.4	-21.4577
185.5	-21.5107
185.6	-21.5637
185.7	-21.6168
185.8	-21.6699
185.9	-21.723
186	-21.7762
186.1	-21.8295
186.2	-21.8828
186.3	-21.9362
186.4	-21.9896
186.5	-22.0431
186.6	-22.0966
186.7	-22.1502
186.8	-22.2038
186.9	-22.2575
187	-22.3113
187.1	-22.3651
187.2	-22.419
187.3	-22.4729
187.4	-22.5269
187.5	-22.581
187.6	-22.6351
187.7	-22.6893
187.8	-22.7436
187.9	-22.7979
188	-22.8523
188.1	-22.9067
188.2	-22.9613
188.3	-23.0159
188.4	-23.0705
188.5	-23.1253
188.6	-23.1801
188.7	-23.2349
188.8	-23.2899
188.9	-23.3449
189	-23.4
189.1	-23.4552
189.2	-23.5105
189.3	-23.5658
189.4	-23.6212
189.5	-23.6767
189.6	-23.7323
189.7	-23.788
189.8	-23.8437
189.9	-23.8996
190	-23.9555
190.1	-24.0115
190.2	-24.0676
190.3	-24.1238
190.4	-24.18
190.5	-24.2364
190.6	-24.2928
190.7	-24.3494
190.8	-24.406
190.9	-24.4628
191	-24.5196
191.1	-24.5766
191.2	-24.6336
191.3	-24.6907
191.4	-24.748
191.5	-24.8053
191.6	-24.8628
191.7	-24.9203
191.8	-24.978
191.9	-25.0357
192	-25.0936
192.1	-25.1516
192.2	-25.2097
192.3	-25.2679
192.4	-25.3262
192.5	-25.3847
192.6	-25.4432
192.7	-25.5019
192.8	-25.5607
192.9	-25.6196
193	-25.6786
193.1	-25.7378
193.2	-25.7971
193.3	-25.8565
193.4	-25.916
193.5	-25.9756
193.6	-26.0354
193.7	-26.0954
193.8	-26.1554
193.9	-26.2156
194	-26.2759
194.1	-26.3364
194.2	-26.397
194.3	-26.4577
194.4	-26.5186
194.5	-26.5796
194.6	-26.6407
194.7	-26.702
194.8	-26.7635
194.9	-26.8251
195	-26.8868
195.1	-26.9487
195.2	-27.0107
195.3	-27.0729
195.4	-27.1353
195.5	-27.1978
195.6	-27.2605
195.7	-27.3233
195.8	-27.3863
195.9	-27.4494
196	-27.5127
196.1	-27.5762
196.2	-27.6398
196.3	-27.7036
196.4	-27.7676
196.5	-27.8317
196.6	-27.896
196.7	-27.9605
196.8	-28.0252
196.9	-28.09
197	-28.155
197.1	-28.2202
197.2	-28.2856
197.3	-28.3511
197.4	-28.4168
197.5	-28.4828
197.6	-28.5489
197.7	-28.6151
197.8	-28.6816
197.9	-28.7483
198	-28.8151
198.1	-28.8822
198.2	-28.9494
198.3	-29.0169
198.4	-29.0845
198.5	-29.1524
198.6	-29.2204
198.7	-29.2886
198.8	-29.3571
198.9	-29.4257
199	-29.4945
199.1	-29.5636
199.2	-29.6329
199.3	-29.7023
199.4	-29.772
199.5	-29.8419
199.6	-29.912
199.7	-29.9823
199.8	-30.0529
199.9	-30.1236
200	-30.1946
200.1	-30.2658
200.2	-30.3372
200.3	-30.4089
200.4	-30.4807
200.5	-30.5528
200.6	-30.6251
200.7	-30.6977
200.8	-30.7704
200.9	-30.8434
201	-30.9167
201.1	-30.9902
201.2	-31.0639
201.3	-31.1378
201.4	-31.212
201.5	-31.2864
201.6	-31.361
201.7	-31.4359
201.8	-31.5111
201.9	-31.5865
202	-31.6621
202.1	-31.738
202.2	-31.8141
202.3	-31.8904
202.4	-31.9671
202.5	-32.0439
202.6	-32.121
202.7	-32.1984
202.8	-32.276
202.9	-32.3539
203	-32.4321
203.1	-32.5105
203.2	-32.5891
203.3	-32.668
203.4	-32.7472
203.5	-32.8266
203.6	-32.9063
203.7	-32.9863
203.8	-33.0665
203.9	-33.147
204	-33.2278
204.1	-33.3088
204.2	-33.3901
204.3	-33.4717
204.4	-33.5535
204.5	-33.6357
204.6	-33.7181
204.7	-33.8007
204.8	-33.8837
204.9	-33.9669
205	-34.0504
205.1	-34.1342
205.2	-34.2182
205.3	-34.3026
205.4	-34.3872
205.5	-34.4721
205.6	-34.5573
205.7	-34.6428
205.8	-34.7286
205.9	-34.8147
206	-34.901
206.1	-34.9877
206.2	-35.0746
206.3	-35.1618
206.4	-35.2493
206.5	-35.3372
206.6	-35.4253
206.7	-35.5137
206.8	-35.6024
206.9	-35.6914
207	-35.7807
207.1	-35.8703
207.2	-35.9603
207.3	-36.0505
207.4	-36.141
207.5	-36.2318
207.6	-36.323
207.7	-36.4144
207.8	-36.5062
207.9	-36.5983
208	-36.6907
208.1	-36.7834
208.2	-36.8764
208.3	-36.9697
208.4	-37.0634
208.5	-37.1573
208.6	-37.2516
208.7	-37.3462
208.8	-37.4412
208.9	-37.5364
209	-37.632
209.1	-37.7279
209.2	-37.8241
209.3	-37.9207
209.4	-38.0176
209.5	-38.1148
209.6	-38.2124
209.7	-38.3103
209.8	-38.4085
209.9	-38.5071
210	-38.606
210.1	-38.7053
210.2	-38.8049
210.3	-38.9048
210.4	-39.0051
210.5	-39.1057
210.6	-39.2067
210.7	-39.308
210.8	-39.4097
210.9	-39.5117
211	-39.6141
211.1	-39.7169
211.2	-39.82
211.3	-39.9234
211.4	-40.0272
211.5	-40.1314
211.6	-40.236
211.7	-40.3409
211.8	-40.4462
211.9	-40.5518
212	-40.6579
212.1	-40.7643
212.2	-40.871
212.3	-40.9782
212.4	-41.0857
212.5	-41.1936
212.6	-41.3019
212.7	-41.4106
212.8	-41.5197
212.9	-41.6292
213	-41.739
213.1	-41.8493
213.2	-41.9599
213.3	-42.0709
213.4	-42.1824
213.5	-42.2942
213.6	-42.4065
213.7	-42.5191
213.8	-42.6322
213.9	-42.7456
214	-42.8595
214.1	-42.9738
214.2	-43.0885
214.3	-43.2037
214.4	-43.3192
214.5	-43.4352
214.6	-43.5516
214.7	-43.6685
214.8	-43.7858
214.9	-43.9035
215	-44.0216
215.1	-44.1402
215.2	-44.2593
215.3	-44.3788
215.4	-44.4987
215.5	-44.6191
215.6	-44.7399
215.7	-44.8612
215.8	-44.983
215.9	-45.1052
216	-45.2279
216.1	-45.351
216.2	-45.4747
216.3	-45.5988
216.4	-45.7234
216.5	-45.8484
216.6	-45.974
216.7	-46.1
216.8	-46.2266
216.9	-46.3536
217	-46.4811
217.1	-46.6092
217.2	-46.7377
217.3	-46.8667
217.4	-46.9963
217.5	-47.1264
217.6	-47.257
217.7	-47.3881
217.8	-47.5197
217.9	-47.6519
218	-47.7846
218.1	-47.9178
218.2	-48.0516
218.3	-48.1859
218.4	-48.3208
218.5	-48.4563
218.6	-48.5922
218.7	-48.7288
218.8	-48.8659
218.9	-49.0036
219	-49.1418
219.1	-49.2807
219.2	-49.4201
219.3	-49.5601
219.4	-49.7007
219.5	-49.8419
219.6	-49.9836
219.7	-50.126
219.8	-50.269
219.9	-50.4126
220	-50.5568
220.1	-50.7016
220.2	-50.8471
220.3	-50.9932
220.4	-51.1399
220.5	-51.2872
220.6	-51.4352
220.7	-51.5839
220.8	-51.7331
220.9	-51.8831
221	-52.0337
221.1	-52.1849
221.2	-52.3368
221.3	-52.4894
221.4	-52.6427
221.5	-52.7966
221.6	-52.9513
221.7	-53.1066
221.8	-53.2626
221.9	-53.4192
222	-53.5766
222.1	-53.7347
222.2	-53.8935
222.3	-54.053
222.4	-54.2132
222.5	-54.3741
222.6	-54.5358
222.7	-54.6982
222.8	-54.8613
222.9	-55.0251
223	-55.1896
223.1	-55.3549
223.2	-55.5209
223.3	-55.6877
223.4	-55.8552
223.5	-56.0234
223.6	-56.1924
223.7	-56.3622
223.8	-56.5326
223.9	-56.7039
224	-56.8758
224.1	-57.0486
224.2	-57.222
224.3	-57.3963
224.4	-57.5713
224.5	-57.747
224.6	-57.9235
224.7	-58.1007
224.8	-58.2787
224.9	-58.4574
225	-58.6369
225.1	-58.8171
225.2	-58.998
225.3	-59.1797
225.4	-59.3621
225.5	-59.5453
225.6	-59.7291
225.7	-59.9137
225.8	-60.099
225.9	-60.285
226	-60.4718
226.1	-60.6592
226.2	-60.8473
226.3	-61.036
226.4	-61.2255
226.5	-61.4156
226.6	-61.6064
226.7	-61.7978
226.8	-61.9898
226.9	-62.1824
227	-62.3757
227.1	-62.5696
227.2	-62.764
227.3	-62.959
227.4	-63.1546
227.5	-63.3507
227.6	-63.5473
227.7	-63.7444
227.8	-63.942
227.9	-64.14
228	-64.3385
228.1	-64.5375
228.2	-64.7368
228.3	-64.9365
228.4	-65.1366
228.5	-65.337
228.6	-65.5377
228.7	-65.7387
228.8	-65.9399
228.9	-66.1414
229	-66.343
229.1	-66.5449
229.2	-66.7469
229.3	-66.9489
229.4	-67.1511
229.5	-67.3533
229.6	-67.5555
229.7	-67.7577
229.8	-67.9598
229.9	-68.1619
230	-68.3638
230.1	-68.5655
230.2	-68.767
230.3	-68.9683
230.4	-69.1693
230.5	-69.3699
230.6	-69.5702
230.7	-69.7701
230.8	-69.9696
230.9	-70.1685
231	-70.3669
231.1	-70.5647
231.2	-70.762
231.3	-70.9585
231.4	-71.1543
231.5	-71.3494
231.6	-71.5437
231.7	-71.7372
231.8	-71.9298
231.9	-72.1215
232	-72.3122
232.1	-72.5019
232.2	-72.6905
232.3	-72.878
232.4	-73.0645
232.5	-73.2497
232.6	-73.4337
232.7	-73.6165
232.8	-73.7979
232.9	-73.9781
233	-74.1568
233.1	-74.3342
233.2	-74.5101
233.3	-74.6845
233.4	-74.8574
233.5	-75.0288
233.6	-75.1985
233.7	-75.3667
233.8	-75.5332
233.9	-75.6981
234	-75.8613
234.1	-76.0227
234.2	-76.1824
234.3	-76.3404
234.4	-76.4965
234.5	-76.6509
234.6	-76.8034
234.7	-76.954
234.8	-77.1028
234.9	-77.2498
235	-77.3948
235.1	-77.5379
235.2	-77.6791
235.3	-77.8184
235.4	-77.9558
235.5	-78.0912
235.6	-78.2247
235.7	-78.3563
235.8	-78.4859
235.9	-78.6135
236	-78.7392
236.1	-78.863
236.2	-78.9848
236.3	-79.1046
236.4	-79.2226
236.5	-79.3386
236.6	-79.4527
236.7	-79.5648
236.8	-79.6751
236.9	-79.7835
237	-79.89
237.1	-79.9946
237.2	-80.0974
237.3	-80.1983
237.4	-80.2974
237.5	-80.3946
237.6	-80.4901
237.7	-80.5838
237.8	-80.6757
237.9	-80.7659
238	-80.8544
238.1	-80.9411
238.2	-81.0261
238.3	-81.1095
238.4	-81.1912
238.5	-81.2713
238.6	-81.3498
238.7	-81.4267
238.8	-81.502
238.9	-81.5758
239	-81.6481
239.1	-81.7188
239.2	-81.7881
239.3	-81.8559
239.4	-81.9223
239.5	-81.9872
239.6	-82.0508
239.7	-82.113
239.8	-82.1738
239.9	-82.2334
240	-82.2916
240.1	-82.3485
240.2	-82.4042
240.3	-82.4587
240.4	-82.5119
240.5	-82.564
240.6	-82.6148
240.7	-82.6646
240.8	-82.7132
240.9	-82.7607
241	-82.8071
241.1	-82.8524
241.2	-82.8967
241.3	-82.94
241.4	-82.9823
241.5	-83.0236
241.6	-83.0639
241.7	-83.1033
241.8	-83.1418
241.9	-83.1794
242	-83.2161
242.1	-83.2519
242.2	-83.2869
242.3	-83.321
242.4	-83.3543
242.5	-83.3869
242.6	-83.4186
242.7	-83.4496
242.8	-83.4799
242.9	-83.5094
243	-83.5382
243.1	-83.5663
243.2	-83.5938
243.3	-83.6206
243.4	-83.6467
243.5	-83.6722
243.6	-83.6971
243.7	-83.7213
243.8	-83.745
243.9	-83.7681
244	-83.7906
244.1	-83.8126
244.2	-83.834
244.3	-83.855
244.4	-83.8754
244.5	-83.8953
244.6	-83.9147
244.7	-83.9336
244.8	-83.9521
244.9	-83.9701
245	-83.9877
245.1	-84.0048
245.2	-84.0215
245.3	-84.0378
245.4	-84.0537
245.5	-84.0692
245.6	-84.0844
245.7	-84.0991
245.8	-84.1135
245.9	-84.1275
246	-84.1412
246.1	-84.1546
246.2	-84.1676
246.3	-84.1803
246.4	-84.1927
246.5	-84.2047
246.6	-84.2165
246.7	-84.228
246.8	-84.2392
246.9	-84.2501
247	-84.2608
247.1	-84.2712
247.2	-84.2813
247.3	-84.2912
247.4	-84.3009
247.5	-84.3103
247.6	-84.3195
247.7	-84.3285
247.8	-84.3372
247.9	-84.3457
248	-84.3541
248.1	-84.3622
248.2	-84.3701
248.3	-84.3778
248.4	-84.3854
248.5	-84.3927
248.6	-84.3999
248.7	-84.4069
248.8	-84.4138
248.9	-84.4204
249	-84.427
249.1	-84.4333
249.2	-84.4395
249.3	-84.4456
249.4	-84.4515
249.5	-84.4573
249.6	-84.4629
249.7	-84.4684
249.8	-84.4738
249.9	-84.4791
250	-84.4842
250.1	-84.4892
250.2	-84.4941
250.3	-84.4989
250.4	-84.5036
250.5	-84.5081
250.6	-84.5126
250.7	-84.5169
250.8	-84.5212
250.9	-84.5254
251	-84.5294
251.1	-84.5334
251.2	-84.5373
251.3	-84.5411
251.4	-84.5448
251.5	-84.5484
251.6	-84.552
251.7	-84.5554
251.8	-84.5588
251.9	-84.5622
252	-84.5654
252.1	-84.5686
252.2	-84.5717
252.3	-84.5747
252.4	-84.5777
252.5	-84.5806
252.6	-84.5835
252.7	-84.5863
252.8	-84.589
252.9	-84.5917
253	-84.5943
253.1	-84.5969
253.2	-84.5994
253.3	-84.6019
253.4	-84.6043
253.5	-84.6067
253.6	-84.609
253.7	-84.6113
253.8	-84.6135
253.9	-84.6157
254	-84.6178
254.1	-84.6199
254.2	-84.622
254.3	-84.624
254.4	-84.626
254.5	-84.628
254.6	-84.6299
254.7	-84.6318
254.8	-84.6336
254.9	-84.6354
255	-84.6372
255.1	-84.639
255.2	-84.6407
255.3	-84.6424
255.4	-84.644
255.5	-84.6457
255.6	-84.6473
255.7	-84.6488
255.8	-84.6504
255.9	-84.6519
256	-84.6534
256.1	-84.6549
256.2	-84.6563
256.3	-84.6578
256.4	-84.6592
256.5	-84.6606
256.6	-84.6619
256.7	-84.6633
256.8	-84.6646
256.9	-84.6659
257	-84.6672
257.1	-84.6685
257.2	-84.6697
257.3	-84.6709
257.4	-84.6722
257.5	-84.6734
257.6	-84.6745
257.7	-84.6757
257.8	-84.6769
257.9	-84.678
258	-84.6791
258.1	-84.6802
258.2	-84.6813
258.3	-84.6824
258.4	-84.6835
258.5	-84.6845
258.6	-84.6856
258.7	-84.6866
258.8	-84.6876
258.9	-84.6886
259	-84.6896
259.1	-84.6906
259.2	-84.6916
259.3	-84.6925
259.4	-84.6935
259.5	-84.6944
259.6	-84.6954
259.7	-84.6963
259.8	-84.6972
259.9	-84.6981
260	-84.699
260.1	-84.6999
260.2	-84.7008
260.3	-84.7016
260.4	-84.7025
260.5	-84.7034
260.6	-84.7042
260.7	-84.7051
260.8	-84.7059
260.9	-84.7067
261	-84.7075
261.1	-84.7084
261.2	-84.7092
261.3	-84.71
261.4	-84.7108
261.5	-84.7116
261.6	-84.7124
261.7	-84.7131
261.8	-84.7139
261.9	-84.7147
262	-84.7154
262.1	-84.7162
262.2	-84.717
262.3	-84.7177
262.4	-84.7184
262.5	-84.7192
262.6	-84.7199
262.7	-84.7207
262.8	-84.7214
262.9	-84.7221
263	-84.7228
263.1	-84.7235
263.2	-84.7242
263.3	-84.725
263.4	-84.7257
263.5	-84.7264
263.6	-84.7271
263.7	-84.7277
263.8	-84.7284
263.9	-84.7291
264	-84.7298
264.1	-84.7305
264.2	-84.7312
264.3	-84.7318
264.4	-84.7325
264.5	-84.7332
264.6	-84.7338
264.7	-84.7345
264.8	-84.7352
264.9	-84.7358
265	-84.7365
265.1	-84.7371
265.2	-84.7378
265.3	-84.7384
265.4	-84.7391
265.5	-84.7397
265.6	-84.7403
265.7	-84.741
265.8	-84.7416
265.9	-84.7422
266	-84.7429
266.1	-84.7435
266.2	-84.7441
266.3	-84.7448
266.4	-84.7454
266.5	-84.746
266.6	-84.7466
266.7	-84.7472
266.8	-84.7479
266.9	-84.7485
267	-84.7491
267.1	-84.7497
267.2	-84.7503
267.3	-84.7509
267.4	-84.7515
267.5	-84.7521
267.6	-84.7527
267.7	-84.7533
267.8	-84.7539
267.9	-84.7545
268	-84.7551
268.1	-84.7557
268.2	-84.7563
268.3	-84.7569
268.4	-84.7575
268.5	-84.7581
268.6	-84.7587
268.7	-84.7593
268.8	-84.7599
268.9	-84.7605
269	-84.7611
269.1	-84.7616
269.2	-84.7622
269.3	-84.7628
269.4	-84.7634
269.5	-84.764
269.6	-84.7645
269.7	-84.7651
269.8	-84.7657
269.9	-84.7663
270	-84.7669
270.1	-84.7674
270.2	-84.768
270.3	-84.7686
270.4	-84.7691
270.5	-84.7697
270.6	-84.7703
270.7	-84.7709
270.8	-84.7714
270.9	-84.772
271	-84.7726
271.1	-84.7731
271.2	-84.7737
271.3	-84.7743
271.4	-84.7748
271.5	-84.7754
271.6	-84.7759
271.7	-84.7765
271.8	-84.7771
271.9	-84.7776
272	-84.7782
272.1	-84.7787
272.2	-84.7793
272.3	-84.7799
272.4	-84.7804
272.5	-84.781
272.6	-84.7815
272.7	-84.7821
272.8	-84.7826
272.9	-84.7832
273	-84.7837
273.1	-84.7843
273.2	-84.7848
273.3	-84.7854
273.4	-84.7859
273.5	-84.7865
273.6	-84.787
273.7	-84.7876
273.8	-84.7881
273.9	-84.7887
274	-84.7892
274.1	-84.7898
274.2	-84.7903
274.3	-84.7908
274.4	-84.7914
274.5	-84.7919
274.6	-84.7925
274.7	-84.793
274.8	-84.7936
274.9	-84.7941
275	-84.7946
275.1	-84.7952
275.2	-84.7957
275.3	-84.7962
275.4	-84.7968
275.5	-84.7973
275.6	-84.7979
275.7	-84.7984
275.8	-84.7989
275.9	-84.7995
276	-84.8
276.1	-84.8005
276.2	-84.8011
276.3	-84.8016
276.4	-84.8021
276.5	-84.8027
276.6	-84.8032
276.7	-84.8037
276.8	-84.8043
276.9	-84.8048
277	-84.8053
277.1	-84.8059
277.2	-84.8064
277.3	-84.8069
277.4	-84.8074
277.5	-84.808
277.6	-84.8085
277.7	-84.809
277.8	-84.8095
277.9	-84.8101
278	-84.8106
278.1	-84.8111
278.2	-84.8116
278.3	-84.8122
278.4	-84.8127
278.5	-84.8132
278.6	-84.8137
278.7	-84.8143
278.8	-84.8148
278.9	-84.8153
279	-84.8158
279.1	-84.8163
279.2	-84.8169
279.3	-84.8174
279.4	-84.8179
279.5	-84.8184
279.6	-84.8189
279.7	-84.8195
279.8	-84.82
279.9	-84.8205
280	-84.821
280.1	-84.8215
280.2	-84.822
280.3	-84.8225
280.4	-84.8231
280.5	-84.8236
280.6	-84.8241
280.7	-84.8246
280.8	-84.8251
280.9	-84.8256
281	-84.8261
281.1	-84.8267
281.2	-84.8272
281.3	-84.8277
281.4	-84.8282
281.5	-84.8287
281.6	-84.8292
281.7	-84.8297
281.8	-84.8302
281.9	-84.8307
282	-84.8312
282.1	-84.8318
282.2	-84.8323
282.3	-84.8328
282.4	-84.8333
282.5	-84.8338
282.6	-84.8343
282.7	-84.8348
282.8	-84.8353
282.9	-84.8358
283	-84.8363
283.1	-84.8368
283.2	-84.8373
283.3	-84.8378
283.4	-84.8383
283.5	-84.8388
283.6	-84.8393
283.7	-84.8398
283.8	-84.8403
283.9	-84.8408
284	-84.8413
284.1	-84.8418
284.2	-84.8423
284.3	-84.8428
284.4	-84.8433
284.5	-84.8438
284.6	-84.8443
284.7	-84.8448
284.8	-84.8453
284.9	-84.8458
285	-84.8463
285.1	-84.8468
285.2	-84.8473
285.3	-84.8478
285.4	-84.8483
285.5	-84.8488
285.6	-84.8493
285.7	-84.8498
285.8	-84.8503
285.9	-84.8508
286	-84.8513
286.1	-84.8518
286.2	-84.8523
286.3	-84.8528
286.4	-84.8532
286.5	-84.8537
286.6	-84.8542
286.7	-84.8547
286.8	-84.8552
286.9	-84.8557
287	-84.8562
287.1	-84.8567
287.2	-84.8572
287.3	-84.8577
287.4	-84.8581
287.5	-84.8586
287.6	-84.8591
287.7	-84.8596
287.8	-84.8601
287.9	-84.8606
288	-84.8611
288.1	-84.8616
288.2	-84.862
288.3	-84.8625
288.4	-84.863
288.5	-84.8635
288.6	-84.864
288.7	-84.8645
288.8	-84.865
288.9	-84.8654
289	-84.8659
289.1	-84.8664
289.2	-84.8669
289.3	-84.8674
289.4	-84.8678
289.5	-84.8683
289.6	-84.8688
289.7	-84.8693
289.8	-84.8698
289.9	-84.8703
290	-84.8707
290.1	-84.8712
290.2	-84.8717
290.3	-84.8722
290.4	-84.8726
290.5	-84.8731
290.6	-84.8736
290.7	-84.8741
290.8	-84.8746
290.9	-84.875
291	-84.8755
291.1	-84.876
291.2	-84.8765
291.3	-84.8769
291.4	-84.8774
291.5	-84.8779
291.6	-84.8784
291.7	-84.8788
291.8	-84.8793
291.9	-84.8798
292	-84.8803
292.1	-84.8807
292.2	-84.8812
292.3	-84.8817
292.4	-84.8822
292.5	-84.8826
292.6	-84.8831
292.7	-84.8836
292.8	-84.884
292.9	-84.8845
293	-84.885
293.1	-84.8854
293.2	-84.8859
293.3	-84.8864
293.4	-84.8869
293.5	-84.8873
293.6	-84.8878
293.7	-84.8883
293.8	-84.8887
293.9	-84.8892
294	-84.8897
294.1	-84.8901
294.2	-84.8906
294.3	-84.8911
294.4	-84.8915
294.5	-84.892
294.6	-84.8925
294.7	-84.8929
294.8	-84.8934
294.9	-84.8938
295	-84.8943
295.1	-84.8948
295.2	-84.8952
295.3	-84.8957
295.4	-84.8962
295.5	-84.8966
295.6	-84.8971
295.7	-84.8976
295.8	-84.898
295.9	-84.8985
296	-84.8989
296.1	-84.8994
296.2	-84.8999
296.3	-84.9003
296.4	-84.9008
296.5	-84.9012
296.6	-84.9017
296.7	-84.9022
296.8	-84.9026
296.9	-84.9031
297	-84.9035
297.1	-84.904
297.2	-84.9044
297.3	-84.9049
297.4	-84.9054
297.5	-84.9058
297.6	-84.9063
297.7	-84.9067
297.8	-84.9072
297.9	-84.9076
298	-84.9081
298.1	-84.9085
298.2	-84.909
298.3	-84.9094
298.4	-84.9099
298.5	-84.9104
298.6	-84.9108
298.7	-84.9113
298.8	-84.9117
298.9	-84.9122
299	-84.9126
299.1	-84.9131
299.2	-84.9135
299.3	-84.914
299.4	-84.9144
299.5	-84.9149
299.6	-84.9153
299.7	-84.9158
299.8	-84.9162
299.9	-84.9167
300	-84.9171
300.1	-84.9176
300.2	-84.918
300.3	-84.9185
300.4	-84.9189
300.5	-84.9194
300.6	-84.9198
300.7	-84.9202
300.8	-84.9207
300.9	-84.9211
301	-84.9216
301.1	-84.922
301.2	-84.9225
301.3	-84.9229
301.4	-84.9234
301.5	-84.9238
301.6	-84.9243
301.7	-84.9247
301.8	-84.9251
301.9	-84.9256
302	-84.926
302.1	-84.9265
302.2	-84.9269
302.3	-84.9274
302.4	-84.9278
302.5	-84.9282
302.6	-84.9287
302.7	-84.9291
302.8	-84.9296
302.9	-84.93
303	-84.9304
303.1	-84.9309
303.2	-84.9313
303.3	-84.9318
303.4	-84.9322
303.5	-84.9326
303.6	-84.9331
303.7	-84.9335
303.8	-84.934
303.9	-84.9344
304	-84.9348
304.1	-84.9353
304.2	-84.9357
304.3	-84.9361
304.4	-84.9366
304.5	-84.937
304.6	-84.9374
304.7	-84.9379
304.8	-84.9383
304.9	-84.9388
305	-84.9392
305.1	-84.9396
305.2	-84.9401
305.3	-84.9405
305.4	-84.9409
305.5	-84.9414
305.6	-84.9418
305.7	-84.9422
305.8	-84.9427
305.9	-84.9431
306	-84.9435
306.1	-84.944
306.2	-84.9444
306.3	-84.9448
306.4	-84.9452
306.5	-84.9457
306.6	-84.9461
306.7	-84.9465
306.8	-84.947
306.9	-84.9474
307	-84.9478
307.1	-84.9483
307.2	-84.9487
307.3	-84.9491
307.4	-84.9495
307.5	-84.95
307.6	-84.9504
307.7	-84.9508
307.8	-84.9512
307.9	-84.9517
308	-84.9521
308.1	-84.9525
308.2	-84.953
308.3	-84.9534
308.4	-84.9538
308.5	-84.9542
308.6	-84.9547
308.7	-84.9551
308.8	-84.9555
308.9	-84.9559
309	-84.9563
309.1	-84.9568
309.2	-84.9572
309.3	-84.9576
309.4	-84.958
309.5	-84.9585
309.6	-84.9589
309.7	-84.9593
309.8	-84.9597
309.9	-84.9602
310	-84.9606
310.1	-84.961
310.2	-84.9614
310.3	-84.9618
310.4	-84.9623
310.5	-84.9627
310.6	-84.9631
310.7	-84.9635
310.8	-84.9639
310.9	-84.9644
311	-84.9648
311.1	-84.9652
311.2	-84.9656
311.3	-84.966
311.4	-84.9664
311.5	-84.9669
311.6	-84.9673
311.7	-84.9677
311.8	-84.9681
311.9	-84.9685
312	-84.9689
312.1	-84.9694
312.2	-84.9698
312.3	-84.9702
312.4	-84.9706
312.5	-84.971
312.6	-84.9714
312.7	-84.9718
312.8	-84.9723
312.9	-84.9727
313	-84.9731
313.1	-84.9735
313.2	-84.9739
313.3	-84.9743
313.4	-84.9747
313.5	-84.9751
313.6	-84.9756
313.7	-84.976
313.8	-84.9764
313.9	-84.9768
314	-84.9772
314.1	-84.9776
314.2	-84.978
314.3	-84.9784
314.4	-84.9788
314.5	-84.9793
314.6	-84.9797
314.7	-84.9801
314.8	-84.9805
314.9	-84.9809
315	-84.9813
315.1	-84.9817
315.2	-84.9821
315.3	-84.9825
315.4	-84.9829
315.5	-84.9833
315.6	-84.9837
315.7	-84.9842
315.8	-84.9846
315.9	-84.985
316	-84.9854
316.1	-84.9858
316.2	-84.9862
316.3	-84.9866
316.4	-84.987
316.5	-84.9874
316.6	-84.9878
316.7	-84.9882
316.8	-84.9886
316.9	-84.989
317	-84.9894
317.1	-84.9898
317.2	-84.9902
317.3	-84.9906
317.4	-84.991
317.5	-84.9914
317.6	-84.9918
317.7	-84.9922
317.8	-84.9926
317.9	-84.993
318	-84.9934
318.1	-84.9938
318.2	-84.9942
318.3	-84.9946
318.4	-84.995
318.5	-84.9954
318.6	-84.9958
318.7	-84.9962
318.8	-84.9966
318.9	-84.997
319	-84.9974
319.1	-84.9978
319.2	-84.9982
319.3	-84.9986
319.4	-84.999
319.5	-84.9994
319.6	-84.9998
319.7	-85.0002
319.8	-85.0006
319.9	-85.001
320	-85.0014
320.1	-85.0018
320.2	-85.0022
320.3	-85.0026
320.4	-85.003
320.5	-85.0034
320.6	-85.0038
320.7	-85.0042
320.8	-85.0046
320.9	-85.005
321	-85.0054
321.1	-85.0057
321.2	-85.0061
321.3	-85.0065
321.4	-85.0069
321.5	-85.0073
321.6	-85.0077
321.7	-85.0081
321.8	-85.0085
321.9	-85.0089
322	-85.0093
322.1	-85.0097
322.2	-85.0101
322.3	-85.0105
322.4	-85.0108
322.5	-85.0112
322.6	-85.0116
322.7	-85.012
322.8	-85.0124
322.9	-85.0128
323	-85.0132
323.1	-85.0136
323.2	-85.014
323.3	-85.0143
323.4	-85.0147
323.5	-85.0151
323.6	-85.0155
323.7	-85.0159
323.8	-85.0163
323.9	-85.0167
324	-85.0171
324.1	-85.0174
324.2	-85.0178
324.3	-85.0182
324.4	-85.0186
324.5	-85.019
324.6	-85.0194
324.7	-85.0198
324.8	-85.0201
324.9	-85.0205
325	-85.0209
325.1	-85.0213
325.2	-85.0217
325.3	-85.0221
325.4	-85.0225
325.5	-85.0228
325.6	-85.0232
325.7	-85.0236
325.8	-85.024
325.9	-85.0244
326	-85.0247
326.1	-85.0251
326.2	-85.0255
326.3	-85.0259
326.4	-85.0263
326.5	-85.0267
326.6	-85.027
326.7	-85.0274
326.8	-85.0278
326.9	-85.0282
327	-85.0286
327.1	-85.0289
327.2	-85.0293
327.3	-85.0297
327.4	-85.0301
327.5	-85.0305
327.6	-85.0308
327.7	-85.0312
327.8	-85.0316
327.9	-85.032
328	-85.0323
328.1	-85.0327
328.2	-85.0331
328.3	-85.0335
328.4	-85.0339
328.5	-85.0342
328.6	-85.0346
328.7	-85.035
328.8	-85.0354
328.9	-85.0357
329	-85.0361
329.1	-85.0365
329.2	-85.0369
329.3	-85.0372
329.4	-85.0376
329.5	-85.038
329.6	-85.0384
329.7	-85.0387
329.8	-85.0391
329.9	-85.0395
330	-85.0399
330.1	-85.0402
330.2	-85.0406
330.3	-85.041
330.4	-85.0413
330.5	-85.0417
330.6	-85.0421
330.7	-85.0425
330.8	-85.0428
330.9	-85.0432
331	-85.0436
331.1	-85.0439
331.2	-85.0443
331.3	-85.0447
331.4	-85.0451
331.5	-85.0454
331.6	-85.0458
331.7	-85.0462
331.8	-85.0465
331.9	-85.0469
332	-85.0473
332.1	-85.0476
332.2	-85.048
332.3	-85.0484
332.4	-85.0487
332.5	-85.0491
332.6	-85.0495
332.7	-85.0499
332.8	-85.0502
332.9	-85.0506
333	-85.051
333.1	-85.0513
333.2	-85.0517
333.3	-85.0521
333.4	-85.0524
333.5	-85.0528
333.6	-85.0532
333.7	-85.0535
333.8	-85.0539
333.9	-85.0542
334	-85.0546
334.1	-85.055
334.2	-85.0553
334.3	-85.0557
334.4	-85.0561
334.5	-85.0564
334.6	-85.0568
334.7	-85.0572
334.8	-85.0575
334.9	-85.0579
335	-85.0582
335.1	-85.0586
335.2	-85.059
335.3	-85.0593
335.4	-85.0597
335.5	-85.0601
335.6	-85.0604
335.7	-85.0608
335.8	-85.0611
335.9	-85.0615
336	-85.0619
336.1	-85.0622
336.2	-85.0626
336.3	-85.0629
336.4	-85.0633
336.5	-85.0637
336.6	-85.064
336.7	-85.0644
336.8	-85.0647
336.9	-85.0651
337	-85.0655
337.1	-85.0658
337.2	-85.0662
337.3	-85.0665
337.4	-85.0669
337.5	-85.0672
337.6	-85.0676
337.7	-85.068
337.8	-85.0683
337.9	-85.0687
338	-85.069
338.1	-85.0694
338.2	-85.0697
338.3	-85.0701
338.4	-85.0705
338.5	-85.0708
338.6	-85.0712
338.7	-85.0715
338.8	-85.0719
338.9	-85.0722
339	-85.0726
339.1	-85.0729
339.2	-85.0733
339.3	-85.0736
339.4	-85.074
339.5	-85.0744
339.6	-85.0747
339.7	-85.0751
339.8	-85.0754
339.9	-85.0758
340	-85.0761
340.1	-85.0765
340.2	-85.0768
340.3	-85.0772
340.4	-85.0775
340.5	-85.0779
340.6	-85.0782
340.7	-85.0786
340.8	-85.0789
340.9	-85.0793
341	-85.0796
341.1	-85.08
341.2	-85.0803
341.3	-85.0807
341.4	-85.081
341.5	-85.0814
341.6	-85.0817
341.7	-85.0821
341.8	-85.0824
341.9	-85.0828
342	-85.0831
342.1	-85.0835
342.2	-85.0838
342.3	-85.0842
342.4	-85.0845
342.5	-85.0849
342.6	-85.0852
342.7	-85.0856
342.8	-85.0859
342.9	-85.0862
343	-85.0866
343.1	-85.0869
343.2	-85.0873
343.3	-85.0876
343.4	-85.088
343.5	-85.0883
343.6	-85.0887
343.7	-85.089
343.8	-85.0894
343.9	-85.0897
344	-85.09
344.1	-85.0904
344.2	-85.0907
344.3	-85.0911
344.4	-85.0914
344.5	-85.0918
344.6	-85.0921
344.7	-85.0924
344.8	-85.0928
344.9	-85.0931
345	-85.0935
345.1	-85.0938
345.2	-85.0942
345.3	-85.0945
345.4	-85.0948
345.5	-85.0952
345.6	-85.0955
345.7	-85.0959
345.8	-85.0962
345.9	-85.0966
346	-85.0969
346.1	-85.0972
346.2	-85.0976
346.3	-85.0979
346.4	-85.0983
346.5	-85.0986
346.6	-85.0989
346.7	-85.0993
346.8	-85.0996
346.9	-85.0999
347	-85.1003
347.1	-85.1006
347.2	-85.101
347.3	-85.1013
347.4	-85.1016
347.5	-85.102
347.6	-85.1023
347.7	-85.1027
347.8	-85.103
347.9	-85.1033
348	-85.1037
348.1	-85.104
348.2	-85.1043
348.3	-85.1047
348.4	-85.105
348.5	-85.1053
348.6	-85.1057
348.7	-85.106
348.8	-85.1063
348.9	-85.1067
349	-85.107
349.1	-85.1074
349.2	-85.1077
349.3	-85.108
349.4	-85.1084
349.5	-85.1087
349.6	-85.109
349.7	-85.1094
349.8	-85.1097
349.9	-85.11
350	-85.1104
350.1	-85.1107
350.2	-85.111
350.3	-85.1114
350.4	-85.1117
350.5	-85.112
350.6	-85.1123
350.7	-85.1127
350.8	-85.113
350.9	-85.1133
351	-85.1137
351.1	-85.114
351.2	-85.1143
351.3	-85.1147
351.4	-85.115
351.5	-85.1153
351.6	-85.1157
351.7	-85.116
351.8	-85.1163
351.9	-85.1166
352	-85.117
352.1	-85.1173
352.2	-85.1176
352.3	-85.118
352.4	-85.1183
352.5	-85.1186
352.6	-85.1189
352.7	-85.1193
352.8	-85.1196
352.9	-85.1199
353	-85.1203
353.1	-85.1206
353.2	-85.1209
353.3	-85.1212
353.4	-85.1216
353.5	-85.1219
353.6	-85.1222
353.7	-85.1225
353.8	-85.1229
353.9	-85.1232
354	-85.1235
354.1	-85.1238
354.2	-85.1242
354.3	-85.1245
354.4	-85.1248
354.5	-85.1251
354.6	-85.1255
354.7	-85.1258
354.8	-85.1261
354.9	-85.1264
355	-85.1268
355.1	-85.1271
355.2	-85.1274
355.3	-85.1277
355.4	-85.1281
355.5	-85.1284
355.6	-85.1287
355.7	-85.129
355.8	-85.1293
355.9	-85.1297
356	-85.13
356.1	-85.1303
356.2	-85.1306
356.3	-85.131
356.4	-85.1313
356.5	-85.1316
356.6	-85.1319
356.7	-85.1322
356.8	-85.1326
356.9	-85.1329
357	-85.1332
357.1	-85.1335
357.2	-85.1338
357.3	-85.1342
357.4	-85.1345
357.5	-85.1348
357.6	-85.1351
357.7	-85.1354
357.8	-85.1358
357.9	-85.1361
358	-85.1364
358.1	-85.1367
358.2	-85.137
358.3	-85.1373
358.4	-85.1377
358.5	-85.138
358.6	-85.1383
358.7	-85.1386
358.8	-85.1389
358.9	-85.1392
359	-85.1396
359.1	-85.1399
359.2	-85.1402
359.3	-85.1405
359.4	-85.1408
359.5	-85.1411
359.6	-85.1415
359.7	-85.1418
359.8	-85.1421
359.9	-85.1424
360	-85.1427
360.1	-85.143
360.2	-85.1434
360.3	-85.1437
360.4	-85.144
360.5	-85.1443
360.6	-85.1446
360.7	-85.1449
360.8	-85.1452
360.9	-85.1455
361	-85.1459
361.1	-85.1462
361.2	-85.1465
361.3	-85.1468
361.4	-85.1471
361.5	-85.1474
361.6	-85.1477
361.7	-85.148
361.8	-85.1484
361.9	-85.1487
362	-85.149
362.1	-85.1493
362.2	-85.1496
362.3	-85.1499
362.4	-85.1502
362.5	-85.1505
362.6	-85.1508
362.7	-85.1512
362.8	-85.1515
362.9	-85.1518
363	-85.1521
363.1	-85.1524
363.2	-85.1527
363.3	-85.153
363.4	-85.1533
363.5	-85.1536
363.6	-85.1539
363.7	-85.1542
363.8	-85.1546
363.9	-85.1549
364	-85.1552
364.1	-85.1555
364.2	-85.1558
364.3	-85.1561
364.4	-85.1564
364.5	-85.1567
364.6	-85.157
364.7	-85.1573
364.8	-85.1576
364.9	-85.1579
365	-85.1582
365.1	-85.1585
365.2	-85.1589
365.3	-85.1592
365.4	-85.1595
365.5	-85.1598
365.6	-85.1601
365.7	-85.1604
365.8	-85.1607
365.9	-85.161
366	-85.1613
366.1	-85.1616
366.2	-85.1619
366.3	-85.1622
366.4	-85.1625
366.5	-85.1628
366.6	-85.1631
366.7	-85.1634
366.8	-85.1637
366.9	-85.164
367	-85.1643
367.1	-85.1646
367.2	-85.1649
367.3	-85.1652
367.4	-85.1655
367.5	-85.1658
367.6	-85.1661
367.7	-85.1664
367.8	-85.1668
367.9	-85.1671
368	-85.1674
368.1	-85.1677
368.2	-85.168
368.3	-85.1683
368.4	-85.1686
368.5	-85.1689
368.6	-85.1692
368.7	-85.1695
368.8	-85.1698
368.9	-85.1701
369	-85.1704
369.1	-85.1707
369.2	-85.171
369.3	-85.1713
369.4	-85.1716
369.5	-85.1719
369.6	-85.1722
369.7	-85.1724
369.8	-85.1727
369.9	-85.173
370	-85.1733
370.1	-85.1736
370.2	-85.1739
370.3	-85.1742
370.4	-85.1745
370.5	-85.1748
370.6	-85.1751
370.7	-85.1754
370.8	-85.1757
370.9	-85.176
371	-85.1763
371.1	-85.1766
371.2	-85.1769
371.3	-85.1772
371.4	-85.1775
371.5	-85.1778
371.6	-85.1781
371.7	-85.1784
371.8	-85.1787
371.9	-85.179
372	-85.1793
372.1	-85.1796
372.2	-85.1799
372.3	-85.1802
372.4	-85.1804
372.5	-85.1807
372.6	-85.181
372.7	-85.1813
372.8	-85.1816
372.9	-85.1819
373	-85.1822
373.1	-85.1825
373.2	-85.1828
373.3	-85.1831
373.4	-85.1834
373.5	-85.1837
373.6	-85.184
373.7	-85.1843
373.8	-85.1845
373.9	-85.1848
374	-85.1851
374.1	-85.1854
374.2	-85.1857
374.3	-85.186
374.4	-85.1863
374.5	-85.1866
374.6	-85.1869
374.7	-85.1872
374.8	-85.1875
374.9	-85.1877
375	-85.188
375.1	-85.1883
375.2	-85.1886
375.3	-85.1889
375.4	-85.1892
375.5	-85.1895
375.6	-85.1898
375.7	-85.1901
375.8	-85.1903
375.9	-85.1906
376	-85.1909
376.1	-85.1912
376.2	-85.1915
376.3	-85.1918
376.4	-85.1921
376.5	-85.1924
376.6	-85.1927
376.7	-85.1929
376.8	-85.1932
376.9	-85.1935
377	-85.1938
377.1	-85.1941
377.2	-85.1944
377.3	-85.1947
377.4	-85.1949
377.5	-85.1952
377.6	-85.1955
377.7	-85.1958
377.8	-85.1961
377.9	-85.1964
378	-85.1967
378.1	-85.1969
378.2	-85.1972
378.3	-85.1975
378.4	-85.1978
378.5	-85.1981
378.6	-85.1984
378.7	-85.1987
378.8	-85.1989
378.9	-85.1992
379	-85.1995
379.1	-85.1998
379.2	-85.2001
379.3	-85.2004
379.4	-85.2006
379.5	-85.2009
379.6	-85.2012
379.7	-85.2015
379.8	-85.2018
379.9	-85.2021
380	-85.2023
380.1	-85.2026
380.2	-85.2029
380.3	-85.2032
380.4	-85.2035
380.5	-85.2037
380.6	-85.204
380.7	-85.2043
380.8	-85.2046
380.9	-85.2049
381	-85.2051
381.1	-85.2054
381.2	-85.2057
381.3	-85.206
381.4	-85.2063
381.5	-85.2065
381.6	-85.2068
381.7	-85.2071
381.8	-85.2074
381.9	-85.2077
382	-85.2079
382.1	-85.2082
382.2	-85.2085
382.3	-85.2088
382.4	-85.2091
382.5	-85.2093
382.6	-85.2096
382.7	-85.2099
382.8	-85.2102
382.9	-85.2105
383	-85.2107
383.1	-85.211
383.2	-85.2113
383.3	-85.2116
383.4	-85.2118
383.5	-85.2121
383.6	-85.2124
383.7	-85.2127
383.8	-85.2129
383.9	-85.2132
384	-85.2135
384.1	-85.2138
384.2	-85.214
384.3	-85.2143
384.4	-85.2146
384.5	-85.2149
384.6	-85.2152
384.7	-85.2154
384.8	-85.2157
384.9	-85.216
385	-85.2162
385.1	-85.2165
385.2	-85.2168
385.3	-85.2171
385.4	-85.2173
385.5	-85.2176
385.6	-85.2179
385.7	-85.2182
385.8	-85.2184
385.9	-85.2187
386	-85.219
386.1	-85.2193
386.2	-85.2195
386.3	-85.2198
386.4	-85.2201
386.5	-85.2204
386.6	-85.2206
386.7	-85.2209
386.8	-85.2212
386.9	-85.2214
387	-85.2217
387.1	-85.222
387.2	-85.2223
387.3	-85.2225
387.4	-85.2228
387.5	-85.2231
387.6	-85.2233
387.7	-85.2236
387.8	-85.2239
387.9	-85.2242
388	-85.2244
388.1	-85.2247
388.2	-85.225
388.3	-85.2252
388.4	-85.2255
388.5	-85.2258
388.6	-85.226
388.7	-85.2263
388.8	-85.2266
388.9	-85.2268
389	-85.2271
389.1	-85.2274
389.2	-85.2277
389.3	-85.2279
389.4	-85.2282
389.5	-85.2285
389.6	-85.2287
389.7	-85.229
389.8	-85.2293
389.9	-85.2295
390	-85.2298
390.1	-85.2301
390.2	-85.2303
390.3	-85.2306
390.4	-85.2309
390.5	-85.2311
390.6	-85.2314
390.7	-85.2317
390.8	-85.2319
390.9	-85.2322
391	-85.2325
391.1	-85.2327
391.2	-85.233
391.3	-85.2333
391.4	-85.2335
391.5	-85.2338
391.6	-85.2341
391.7	-85.2343
391.8	-85.2346
391.9	-85.2349
392	-85.2351
392.1	-85.2354
392.2	-85.2356
392.3	-85.2359
392.4	-85.2362
392.5	-85.2364
392.6	-85.2367
392.7	-85.237
392.8	-85.2372
392.9	-85.2375
393	-85.2378
393.1	-85.238
393.2	-85.2383
393.3	-85.2385
393.4	-85.2388
393.5	-85.2391
393.6	-85.2393
393.7	-85.2396
393.8	-85.2399
393.9	-85.2401
394	-85.2404
394.1	-85.2406
394.2	-85.2409
394.3	-85.2412
394.4	-85.2414
394.5	-85.2417
394.6	-85.2419
394.7	-85.2422
394.8	-85.2425
394.9	-85.2427
395	-85.243
395.1	-85.2432
395.2	-85.2435
395.3	-85.2438
395.4	-85.244
395.5	-85.2443
395.6	-85.2445
395.7	-85.2448
395.8	-85.2451
395.9	-85.2453
396	-85.2456
396.1	-85.2458
396.2	-85.2461
396.3	-85.2464
396.4	-85.2466
396.5	-85.2469
396.6	-85.2471
396.7	-85.2474
396.8	-85.2476
396.9	-85.2479
397	-85.2482
397.1	-85.2484
397.2	-85.2487
397.3	-85.2489
397.4	-85.2492
397.5	-85.2495
397.6	-85.2497
397.7	-85.25
397.8	-85.2502
397.9	-85.2505
398	-85.2507
398.1	-85.251
398.2	-85.2512
398.3	-85.2515
398.4	-85.2518
398.5	-85.252
398.6	-85.2523
398.7	-85.2525
398.8	-85.2528
398.9	-85.253
399	-85.2533
399.1	-85.2535
399.2	-85.2538
399.3	-85.2541
399.4	-85.2543
399.5	-85.2546
399.6	-85.2548
399.7	-85.2551
399.8	-85.2553
399.9	-85.2556
400	-85.2558
400.1	-85.2561
400.2	-85.2563
400.3	-85.2566
400.4	-85.2568
400.5	-85.2571
400.6	-85.2573
400.7	-85.2576
400.8	-85.2579
400.9	-85.2581
401	-85.2584
401.1	-85.2586
401.2	-85.2589
401.3	-85.2591
401.4	-85.2594
401.5	-85.2596
401.6	-85.2599
401.7	-85.2601
401.8	-85.2604
401.9	-85.2606
402	-85.2609
402.1	-85.2611
402.2	-85.2614
402.3	-85.2616
402.4	-85.2619
402.5	-85.2621
402.6	-85.2624
402.7	-85.2626
402.8	-85.2629
402.9	-85.2631
403	-85.2634
403.1	-85.2636
403.2	-85.2639
403.3	-85.2641
403.4	-85.2644
403.5	-85.2646
403.6	-85.2649
403.7	-85.2651
403.8	-85.2654
403.9	-85.2656
404	-85.2659
404.1	-85.2661
404.2	-85.2664
404.3	-85.2666
404.4	-85.2669
404.5	-85.2671
404.6	-85.2673
404.7	-85.2676
404.8	-85.2678
404.9	-85.2681
405	-85.2683
405.1	-85.2686
405.2	-85.2688
405.3	-85.2691
405.4	-85.2693
405.5	-85.2696
405.6	-85.2698
405.7	-85.2701
405.8	-85.2703
405.9	-85.2706
406	-85.2708
406.1	-85.271
406.2	-85.2713
406.3	-85.2715
406.4	-85.2718
406.5	-85.272
406.6	-85.2723
406.7	-85.2725
406.8	-85.2728
406.9	-85.273
407	-85.2732
407.1	-85.2735
407.2	-85.2737
407.3	-85.274
407.4	-85.2742
407.5	-85.2745
407.6	-85.2747
407.7	-85.275
407.8	-85.2752
407.9	-85.2754
408	-85.2757
408.1	-85.2759
408.2	-85.2762
408.3	-85.2764
408.4	-85.2767
408.5	-85.2769
408.6	-85.2771
408.7	-85.2774
408.8	-85.2776
408.9	-85.2779
409	-85.2781
409.1	-85.2783
409.2	-85.2786
409.3	-85.2788
409.4	-85.2791
409.5	-85.2793
409.6	-85.2796
409.7	-85.2798
409.8	-85.28
409.9	-85.2803
410	-85.2805
410.1	-85.2808
410.2	-85.281
410.3	-85.2812
410.4	-85.2815
410.5	-85.2817
410.6	-85.282
410.7	-85.2822
410.8	-85.2824
410.9	-85.2827
411	-85.2829
411.1	-85.2832
411.2	-85.2834
411.3	-85.2836
411.4	-85.2839
411.5	-85.2841
411.6	-85.2843
411.7	-85.2846
411.8	-85.2848
411.9	-85.2851
412	-85.2853
412.1	-85.2855
412.2	-85.2858
412.3	-85.286
412.4	-85.2863
412.5	-85.2865
412.6	-85.2867
412.7	-85.287
412.8	-85.2872
412.9	-85.2874
413	-85.2877
413.1	-85.2879
413.2	-85.2881
413.3	-85.2884
413.4	-85.2886
413.5	-85.2889
413.6	-85.2891
413.7	-85.2893
413.8	-85.2896
413.9	-85.2898
414	-85.29
414.1	-85.2903
414.2	-85.2905
414.3	-85.2907
414.4	-85.291
414.5	-85.2912
414.6	-85.2914
414.7	-85.2917
414.8	-85.2919
414.9	-85.2921
415	-85.2924
415.1	-85.2926
415.2	-85.2929
415.3	-85.2931
415.4	-85.2933
415.5	-85.2936
415.6	-85.2938
415.7	-85.294
415.8	-85.2943
415.9	-85.2945
416	-85.2947
416.1	-85.295
416.2	-85.2952
416.3	-85.2954
416.4	-85.2957
416.5	-85.2959
416.6	-85.2961
416.7	-85.2963
416.8	-85.2966
416.9	-85.2968
417	-85.297
417.1	-85.2973
417.2	-85.2975
417.3	-85.2977
417.4	-85.298
417.5	-85.2982
417.6	-85.2984
417.7	-85.2987
417.8	-85.2989
417.9	-85.2991
418	-85.2994
418.1	-85.2996
418.2	-85.2998
418.3	-85.3
418.4	-85.3003
418.5	-85.3005
418.6	-85.3007
418.7	-85.301
418.8	-85.3012
418.9	-85.3014
419	-85.3017
419.1	-85.3019
419.2	-85.3021
419.3	-85.3023
419.4	-85.3026
419.5	-85.3028
419.6	-85.303
419.7	-85.3033
419.8	-85.3035
419.9	-85.3037
420	-85.3039
420.1	-85.3042
420.2	-85.3044
420.3	-85.3046
420.4	-85.3049
420.5	-85.3051
420.6	-85.3053
420.7	-85.3055
420.8	-85.3058
420.9	-85.306
421	-85.3062
421.1	-85.3064
421.2	-85.3067
421.3	-85.3069
421.4	-85.3071
421.5	-85.3074
421.6	-85.3076
421.7	-85.3078
421.8	-85.308
421.9	-85.3083
422	-85.3085
422.1	-85.3087
422.2	-85.3089
422.3	-85.3092
422.4	-85.3094
422.5	-85.3096
422.6	-85.3098
422.7	-85.3101
422.8	-85.3103
422.9	-85.3105
423	-85.3107
423.1	-85.311
423.2	-85.3112
423.3	-85.3114
423.4	-85.3116
423.5	-85.3119
423.6	-85.3121
423.7	-85.3123
423.8	-85.3125
423.9	-85.3128
424	-85.313
424.1	-85.3132
424.2	-85.3134
424.3	-85.3136
424.4	-85.3139
424.5	-85.3141
424.6	-85.3143
424.7	-85.3145
424.8	-85.3148
424.9	-85.315
425	-85.3152
425.1	-85.3154
425.2	-85.3157
425.3	-85.3159
425.4	-85.3161
425.5	-85.3163
425.6	-85.3165
425.7	-85.3168
425.8	-85.317
425.9	-85.3172
426	-85.3174
426.1	-85.3176
426.2	-85.3179
426.3	-85.3181
426.4	-85.3183
426.5	-85.3185
426.6	-85.3187
426.7	-85.319
426.8	-85.3192
426.9	-85.3194
427	-85.3196
427.1	-85.3199
427.2	-85.3201
427.3	-85.3203
427.4	-85.3205
427.5	-85.3207
427.6	-85.3209
427.7	-85.3212
427.8	-85.3214
427.9	-85.3216
428	-85.3218
428.1	-85.322
428.2	-85.3223
428.3	-85.3225
428.4	-85.3227
428.5	-85.3229
428.6	-85.3231
428.7	-85.3234
428.8	-85.3236
428.9	-85.3238
429	-85.324
429.1	-85.3242
429.2	-85.3244
429.3	-85.3247
429.4	-85.3249
429.5	-85.3251
429.6	-85.3253
429.7	-85.3255
429.8	-85.3257
429.9	-85.326
430	-85.3262
430.1	-85.3264
430.2	-85.3266
430.3	-85.3268
430.4	-85.327
430.5	-85.3273
430.6	-85.3275
430.7	-85.3277
430.8	-85.3279
430.9	-85.3281
431	-85.3283
431.1	-85.3286
431.2	-85.3288
431.3	-85.329
431.4	-85.3292
431.5	-85.3294
431.6	-85.3296
431.7	-85.3298
431.8	-85.3301
431.9	-85.3303
432	-85.3305
432.1	-85.3307
432.2	-85.3309
432.3	-85.3311
432.4	-85.3313
432.5	-85.3316
432.6	-85.3318
432.7	-85.332
432.8	-85.3322
432.9	-85.3324
433	-85.3326
433.1	-85.3328
433.2	-85.3331
433.3	-85.3333
433.4	-85.3335
433.5	-85.3337
433.6	-85.3339
433.7	-85.3341
433.8	-85.3343
433.9	-85.3345
434	-85.3348
434.1	-85.335
434.2	-85.3352
434.3	-85.3354
434.4	-85.3356
434.5	-85.3358
434.6	-85.336
434.7	-85.3362
434.8	-85.3365
434.9	-85.3367
435	-85.3369
435.1	-85.3371
435.2	-85.3373
435.3	-85.3375
435.4	-85.3377
435.5	-85.3379
435.6	-85.3381
435.7	-85.3384
435.8	-85.3386
435.9	-85.3388
436	-85.339
436.1	-85.3392
436.2	-85.3394
436.3	-85.3396
436.4	-85.3398
436.5	-85.34
436.6	-85.3402
436.7	-85.3405
436.8	-85.3407
436.9	-85.3409
437	-85.3411
437.1	-85.3413
437.2	-85.3415
437.3	-85.3417
437.4	-85.3419
437.5	-85.3421
437.6	-85.3423
437.7	-85.3425
437.8	-85.3427
437.9	-85.343
438	-85.3432
438.1	-85.3434
438.2	-85.3436
438.3	-85.3438
438.4	-85.344
438.5	-85.3442
438.6	-85.3444
438.7	-85.3446
438.8	-85.3448
438.9	-85.345
439	-85.3452
439.1	-85.3454
439.2	-85.3457
439.3	-85.3459
439.4	-85.3461
439.5	-85.3463
439.6	-85.3465
439.7	-85.3467
439.8	-85.3469
439.9	-85.3471
440	-85.3473
440.1	-85.3475
440.2	-85.3477
440.3	-85.3479
440.4	-85.3481
440.5	-85.3483
440.6	-85.3485
440.7	-85.3487
440.8	-85.3489
440.9	-85.3491
441	-85.3494
441.1	-85.3496
441.2	-85.3498
441.3	-85.35
441.4	-85.3502
441.5	-85.3504
441.6	-85.3506
441.7	-85.3508
441.8	-85.351
441.9	-85.3512
442	-85.3514
442.1	-85.3516
442.2	-85.3518
442.3	-85.352
442.4	-85.3522
442.5	-85.3524
442.6	-85.3526
442.7	-85.3528
442.8	-85.353
442.9	-85.3532
443	-85.3534
443.1	-85.3536
443.2	-85.3538
443.3	-85.354
443.4	-85.3542
443.5	-85.3544
443.6	-85.3546
443.7	-85.3548
443.8	-85.355
443.9	-85.3552
444	-85.3554
444.1	-85.3557
444.2	-85.3559
444.3	-85.3561
444.4	-85.3563
444.5	-85.3565
444.6	-85.3567
444.7	-85.3569
444.8	-85.3571
444.9	-85.3573
445	-85.3575
445.1	-85.3577
445.2	-85.3579
445.3	-85.3581
445.4	-85.3583
445.5	-85.3585
445.6	-85.3587
445.7	-85.3589
445.8	-85.3591
445.9	-85.3593
446	-85.3595
446.1	-85.3597
446.2	-85.3599
446.3	-85.3601
446.4	-85.3603
446.5	-85.3605
446.6	-85.3607
446.7	-85.3609
446.8	-85.3611
446.9	-85.3613
447	-85.3615
447.1	-85.3617
447.2	-85.3618
447.3	-85.362
447.4	-85.3622
447.5	-85.3624
447.6	-85.3626
447.7	-85.3628
447.8	-85.363
447.9	-85.3632
448	-85.3634
448.1	-85.3636
448.2	-85.3638
448.3	-85.364
448.4	-85.3642
448.5	-85.3644
448.6	-85.3646
448.7	-85.3648
448.8	-85.365
448.9	-85.3652
449	-85.3654
449.1	-85.3656
449.2	-85.3658
449.3	-85.366
449.4	-85.3662
449.5	-85.3664
449.6	-85.3666
449.7	-85.3668
449.8	-85.367
449.9	-85.3672
450	-85.3674
450.1	-85.3676
450.2	-85.3678
450.3	-85.368
450.4	-85.3681
450.5	-85.3683
450.6	-85.3685
450.7	-85.3687
450.8	-85.3689
450.9	-85.3691
451	-85.3693
451.1	-85.3695
451.2	-85.3697
451.3	-85.3699
451.4	-85.3701
451.5	-85.3703
451.6	-85.3705
451.7	-85.3707
451.8	-85.3709
451.9	-85.3711
452	-85.3713
452.1	-85.3714
452.2	-85.3716
452.3	-85.3718
452.4	-85.372
452.5	-85.3722
452.6	-85.3724
452.7	-85.3726
452.8	-85.3728
452.9	-85.373
453	-85.3732
453.1	-85.3734
453.2	-85.3736
453.3	-85.3738
453.4	-85.374
453.5	-85.3741
453.6	-85.3743
453.7	-85.3745
453.8	-85.3747
453.9	-85.3749
454	-85.3751
454.1	-85.3753
454.2	-85.3755
454.3	-85.3757
454.4	-85.3759
454.5	-85.3761
454.6	-85.3763
454.7	-85.3764
454.8	-85.3766
454.9	-85.3768
455	-85.377
455.1	-85.3772
455.2	-85.3774
455.3	-85.3776
455.4	-85.3778
455.5	-85.378
455.6	-85.3782
455.7	-85.3784
455.8	-85.3785
455.9	-85.3787
456	-85.3789
456.1	-85.3791
456.2	-85.3793
456.3	-85.3795
456.4	-85.3797
456.5	-85.3799
456.6	-85.3801
456.7	-85.3802
456.8	-85.3804
456.9	-85.3806
457	-85.3808
457.1	-85.381
457.2	-85.3812
457.3	-85.3814
457.4	-85.3816
457.5	-85.3818
457.6	-85.3819
457.7	-85.3821
457.8	-85.3823
457.9	-85.3825
458	-85.3827
458.1	-85.3829
458.2	-85.3831
458.3	-85.3833
458.4	-85.3834
458.5	-85.3836
458.6	-85.3838
458.7	-85.384
458.8	-85.3842
458.9	-85.3844
459	-85.3846
459.1	-85.3848
459.2	-85.3849
459.3	-85.3851
459.4	-85.3853
459.5	-85.3855
459.6	-85.3857
459.7	-85.3859
459.8	-85.3861
459.9	-85.3862
460	-85.3864
460.1	-85.3866
460.2	-85.3868
460.3	-85.387
460.4	-85.3872
460.5	-85.3874
460.6	-85.3875
460.7	-85.3877
460.8	-85.3879
460.9	-85.3881
461	-85.3883
461.1	-85.3885
461.2	-85.3887
461.3	-85.3888
461.4	-85.389
461.5	-85.3892
461.6	-85.3894
461.7	-85.3896
461.8	-85.3898
461.9	-85.39
462	-85.3901
462.1	-85.3903
462.2	-85.3905
462.3	-85.3907
462.4	-85.3909
462.5	-85.3911
462.6	-85.3912
462.7	-85.3914
462.8	-85.3916
462.9	-85.3918
463	-85.392
463.1	-85.3922
463.2	-85.3923
463.3	-85.3925
463.4	-85.3927
463.5	-85.3929
463.6	-85.3931
463.7	-85.3932
463.8	-85.3934
463.9	-85.3936
464	-85.3938
464.1	-85.394
464.2	-85.3942
464.3	-85.3943
464.4	-85.3945
464.5	-85.3947
464.6	-85.3949
464.7	-85.3951
464.8	-85.3953
464.9	-85.3954
465	-85.3956
465.1	-85.3958
465.2	-85.396
465.3	-85.3962
465.4	-85.3963
465.5	-85.3965
465.6	-85.3967
465.7	-85.3969
465.8	-85.3971
465.9	-85.3972
466	-85.3974
466.1	-85.3976
466.2	-85.3978
466.3	-85.398
466.4	-85.3981
466.5	-85.3983
466.6	-85.3985
466.7	-85.3987
466.8	-85.3989
466.9	-85.399
467	-85.3992
467.1	-85.3994
467.2	-85.3996
467.3	-85.3998
467.4	-85.3999
467.5	-85.4001
467.6	-85.4003
467.7	-85.4005
467.8	-85.4007
467.9	-85.4008
468	-85.401
468.1	-85.4012
468.2	-85.4014
468.3	-85.4015
468.4	-85.4017
468.5	-85.4019
468.6	-85.4021
468.7	-85.4023
468.8	-85.4024
468.9	-85.4026
469	-85.4028
469.1	-85.403
469.2	-85.4031
469.3	-85.4033
469.4	-85.4035
469.5	-85.4037
469.6	-85.4039
469.7	-85.404
469.8	-85.4042
469.9	-85.4044
470	-85.4046
470.1	-85.4047
470.2	-85.4049
470.3	-85.4051
470.4	-85.4053
470.5	-85.4054
470.6	-85.4056
470.7	-85.4058
470.8	-85.406
470.9	-85.4062
471	-85.4063
471.1	-85.4065
471.2	-85.4067
471.3	-85.4069
471.4	-85.407
471.5	-85.4072
471.6	-85.4074
471.7	-85.4076
471.8	-85.4077
471.9	-85.4079
472	-85.4081
472.1	-85.4083
472.2	-85.4084
472.3	-85.4086
472.4	-85.4088
472.5	-85.409
472.6	-85.4091
472.7	-85.4093
472.8	-85.4095
472.9	-85.4097
473	-85.4098
473.1	-85.41
473.2	-85.4102
473.3	-85.4104
473.4	-85.4105
473.5	-85.4107
473.6	-85.4109
473.7	-85.411
473.8	-85.4112
473.9	-85.4114
474	-85.4116
474.1	-85.4117
474.2	-85.4119
474.3	-85.4121
474.4	-85.4123
474.5	-85.4124
474.6	-85.4126
474.7	-85.4128
474.8	-85.413
474.9	-85.4131
475	-85.4133
475.1	-85.4135
475.2	-85.4136
475.3	-85.4138
475.4	-85.414
475.5	-85.4142
475.6	-85.4143
475.7	-85.4145
475.8	-85.4147
475.9	-85.4148
476	-85.415
476.1	-85.4152
476.2	-85.4154
476.3	-85.4155
476.4	-85.4157
476.5	-85.4159
476.6	-85.416
476.7	-85.4162
476.8	-85.4164
476.9	-85.4166
477	-85.4167
477.1	-85.4169
477.2	-85.4171
477.3	-85.4172
477.4	-85.4174
477.5	-85.4176
477.6	-85.4178
477.7	-85.4179
477.8	-85.4181
477.9	-85.4183
478	-85.4184
478.1	-85.4186
478.2	-85.4188
478.3	-85.4189
478.4	-85.4191
478.5	-85.4193
478.6	-85.4194
478.7	-85.4196
478.8	-85.4198
478.9	-85.42
479	-85.4201
479.1	-85.4203
479.2	-85.4205
479.3	-85.4206
479.4	-85.4208
479.5	-85.421
479.6	-85.4211
479.7	-85.4213
479.8	-85.4215
479.9	-85.4216
480	-85.4218
480.1	-85.422
480.2	-85.4221
480.3	-85.4223
480.4	-85.4225
480.5	-85.4227
480.6	-85.4228
480.7	-85.423
480.8	-85.4232
480.9	-85.4233
481	-85.4235
481.1	-85.4237
481.2	-85.4238
481.3	-85.424
481.4	-85.4242
481.5	-85.4243
481.6	-85.4245
481.7	-85.4247
481.8	-85.4248
481.9	-85.425
482	-85.4252
482.1	-85.4253
482.2	-85.4255
482.3	-85.4257
482.4	-85.4258
482.5	-85.426
482.6	-85.4262
482.7	-85.4263
482.8	-85.4265
482.9	-85.4267
483	-85.4268
483.1	-85.427
483.2	-85.4272
483.3	-85.4273
483.4	-85.4275
483.5	-85.4276
483.6	-85.4278
483.7	-85.428
483.8	-85.4281
483.9	-85.4283
484	-85.4285
484.1	-85.4286
484.2	-85.4288
484.3	-85.429
484.4	-85.4291
484.5	-85.4293
484.6	-85.4295
484.7	-85.4296
484.8	-85.4298
484.9	-85.43
485	-85.4301
485.1	-85.4303
485.2	-85.4304
485.3	-85.4306
485.4	-85.4308
485.5	-85.4309
485.6	-85.4311
485.7	-85.4313
485.8	-85.4314
485.9	-85.4316
486	-85.4318
486.1	-85.4319
486.2	-85.4321
486.3	-85.4322
486.4	-85.4324
486.5	-85.4326
486.6	-85.4327
486.7	-85.4329
486.8	-85.4331
486.9	-85.4332
487	-85.4334
487.1	-85.4335
487.2	-85.4337
487.3	-85.4339
487.4	-85.434
487.5	-85.4342
487.6	-85.4344
487.7	-85.4345
487.8	-85.4347
487.9	-85.4348
488	-85.435
488.1	-85.4352
488.2	-85.4353
488.3	-85.4355
488.4	-85.4357
488.5	-85.4358
488.6	-85.436
488.7	-85.4361
488.8	-85.4363
488.9	-85.4365
489	-85.4366
489.1	-85.4368
489.2	-85.4369
489.3	-85.4371
489.4	-85.4373
489.5	-85.4374
489.6	-85.4376
489.7	-85.4377
489.8	-85.4379
489.9	-85.4381
490	-85.4382
490.1	-85.4384
490.2	-85.4385
490.3	-85.4387
490.4	-85.4389
490.5	-85.439
490.6	-85.4392
490.7	-85.4393
490.8	-85.4395
490.9	-85.4397
491	-85.4398
491.1	-85.44
491.2	-85.4401
491.3	-85.4403
491.4	-85.4405
491.5	-85.4406
491.6	-85.4408
491.7	-85.4409
491.8	-85.4411
491.9	-85.4412
492	-85.4414
492.1	-85.4416
492.2	-85.4417
492.3	-85.4419
492.4	-85.442
492.5	-85.4422
492.6	-85.4424
492.7	-85.4425
492.8	-85.4427
492.9	-85.4428
493	-85.443
493.1	-85.4431
493.2	-85.4433
493.3	-85.4435
493.4	-85.4436
493.5	-85.4438
493.6	-85.4439
493.7	-85.4441
493.8	-85.4442
493.9	-85.4444
494	-85.4446
494.1	-85.4447
494.2	-85.4449
494.3	-85.445
494.4	-85.4452
494.5	-85.4453
494.6	-85.4455
494.7	-85.4457
494.8	-85.4458
494.9	-85.446
495	-85.4461
495.1	-85.4463
495.2	-85.4464
495.3	-85.4466
495.4	-85.4468
495.5	-85.4469
495.6	-85.4471
495.7	-85.4472
495.8	-85.4474
495.9	-85.4475
496	-85.4477
496.1	-85.4478
496.2	-85.448
496.3	-85.4482
496.4	-85.4483
496.5	-85.4485
496.6	-85.4486
496.7	-85.4488
496.8	-85.4489
496.9	-85.4491
497	-85.4492
497.1	-85.4494
497.2	-85.4495
497.3	-85.4497
497.4	-85.4499
497.5	-85.45
497.6	-85.4502
497.7	-85.4503
497.8	-85.4505
497.9	-85.4506
498	-85.4508
498.1	-85.4509
498.2	-85.4511
498.3	-85.4512
498.4	-85.4514
498.5	-85.4515
498.6	-85.4517
498.7	-85.4519
498.8	-85.452
498.9	-85.4522
499	-85.4523
499.1	-85.4525
499.2	-85.4526
499.3	-85.4528
499.4	-85.4529
499.5	-85.4531
499.6	-85.4532
499.7	-85.4534
499.8	-85.4535
499.9	-85.4537
500	-85.4538
500.1	-85.454
500.2	-85.4541
500.3	-85.4543
500.4	-85.4544
500.5	-85.4546
500.6	-85.4548
500.7	-85.4549
500.8	-85.4551
500.9	-85.4552
501	-85.4554
501.1	-85.4555
501.2	-85.4557
501.3	-85.4558
501.4	-85.456
501.5	-85.4561
501.6	-85.4563
501.7	-85.4564
501.8	-85.4566
501.9	-85.4567
502	-85.4569
502.1	-85.457
502.2	-85.4572
502.3	-85.4573
502.4	-85.4575
502.5	-85.4576
502.6	-85.4578
502.7	-85.4579
502.8	-85.4581
502.9	-85.4582
503	-85.4584
503.1	-85.4585
503.2	-85.4587
503.3	-85.4588
503.4	-85.459
503.5	-85.4591
503.6	-85.4593
503.7	-85.4594
503.8	-85.4596
503.9	-85.4597
504	-85.4599
504.1	-85.46
504.2	-85.4602
504.3	-85.4603
504.4	-85.4605
504.5	-85.4606
504.6	-85.4608
504.7	-85.4609
504.8	-85.4611
504.9	-85.4612
505	-85.4614
505.1	-85.4615
505.2	-85.4617
505.3	-85.4618
505.4	-85.462
505.5	-85.4621
505.6	-85.4623
505.7	-85.4624
505.8	-85.4626
505.9	-85.4627
506	-85.4628
506.1	-85.463
506.2	-85.4631
506.3	-85.4633
506.4	-85.4634
506.5	-85.4636
506.6	-85.4637
506.7	-85.4639
506.8	-85.464
506.9	-85.4642
507	-85.4643
507.1	-85.4645
507.2	-85.4646
507.3	-85.4648
507.4	-85.4649
507.5	-85.4651
507.6	-85.4652
507.7	-85.4654
507.8	-85.4655
507.9	-85.4656
508	-85.4658
508.1	-85.4659
508.2	-85.4661
508.3	-85.4662
508.4	-85.4664
508.5	-85.4665
508.6	-85.4667
508.7	-85.4668
508.8	-85.467
508.9	-85.4671
509	-85.4673
509.1	-85.4674
509.2	-85.4675
509.3	-85.4677
509.4	-85.4678
509.5	-85.468
509.6	-85.4681
509.7	-85.4683
509.8	-85.4684
509.9	-85.4686
510	-85.4687
510.1	-85.4689
510.2	-85.469
510.3	-85.4691
510.4	-85.4693
510.5	-85.4694
510.6	-85.4696
510.7	-85.4697
510.8	-85.4699
510.9	-85.47
511	-85.4702
511.1	-85.4703
511.2	-85.4704
511.3	-85.4706
511.4	-85.4707
511.5	-85.4709
511.6	-85.471
511.7	-85.4712
511.8	-85.4713
511.9	-85.4715
512	-85.4716
512.1	-85.4717
512.2	-85.4719
512.3	-85.472
512.4	-85.4722
512.5	-85.4723
512.6	-85.4725
512.7	-85.4726
512.8	-85.4727
512.9	-85.4729
513	-85.473
513.1	-85.4732
513.2	-85.4733
513.3	-85.4735
513.4	-85.4736
513.5	-85.4737
513.6	-85.4739
513.7	-85.474
513.8	-85.4742
513.9	-85.4743
514	-85.4745
514.1	-85.4746
514.2	-85.4747
514.3	-85.4749
514.4	-85.475
514.5	-85.4752
514.6	-85.4753
514.7	-85.4755
514.8	-85.4756
514.9	-85.4757
515	-85.4759
515.1	-85.476
515.2	-85.4762
515.3	-85.4763
515.4	-85.4764
515.5	-85.4766
515.6	-85.4767
515.7	-85.4769
515.8	-85.477
515.9	-85.4771
516	-85.4773
516.1	-85.4774
516.2	-85.4776
516.3	-85.4777
516.4	-85.4779
516.5	-85.478
516.6	-85.4781
516.7	-85.4783
516.8	-85.4784
516.9	-85.4786
517	-85.4787
517.1	-85.4788
517.2	-85.479
517.3	-85.4791
517.4	-85.4793
517.5	-85.4794
517.6	-85.4795
517.7	-85.4797
517.8	-85.4798
517.9	-85.48
518	-85.4801
518.1	-85.4802
518.2	-85.4804
518.3	-85.4805
518.4	-85.4807
518.5	-85.4808
518.6	-85.4809
518.7	-85.4811
518.8	-85.4812
518.9	-85.4813
519	-85.4815
519.1	-85.4816
519.2	-85.4818
519.3	-85.4819
519.4	-85.482
519.5	-85.4822
519.6	-85.4823
519.7	-85.4825
519.8	-85.4826
519.9	-85.4827
520	-85.4829
520.1	-85.483
520.2	-85.4831
520.3	-85.4833
520.4	-85.4834
520.5	-85.4836
520.6	-85.4837
520.7	-85.4838
520.8	-85.484
520.9	-85.4841
521	-85.4843
521.1	-85.4844
521.2	-85.4845
521.3	-85.4847
521.4	-85.4848
521.5	-85.4849
521.6	-85.4851
521.7	-85.4852
521.8	-85.4853
521.9	-85.4855
522	-85.4856
522.1	-85.4858
522.2	-85.4859
522.3	-85.486
522.4	-85.4862
522.5	-85.4863
522.6	-85.4864
522.7	-85.4866
522.8	-85.4867
522.9	-85.4869
523	-85.487
523.1	-85.4871
523.2	-85.4873
523.3	-85.4874
523.4	-85.4875
523.5	-85.4877
523.6	-85.4878
523.7	-85.4879
523.8	-85.4881
523.9	-85.4882
524	-85.4883
524.1	-85.4885
524.2	-85.4886
524.3	-85.4888
524.4	-85.4889
524.5	-85.489
524.6	-85.4892
524.7	-85.4893
524.8	-85.4894
524.9	-85.4896
525	-85.4897
525.1	-85.4898
525.2	-85.49
525.3	-85.4901
525.4	-85.4902
525.5	-85.4904
525.6	-85.4905
525.7	-85.4906
525.8	-85.4908
525.9	-85.4909
526	-85.491
526.1	-85.4912
526.2	-85.4913
526.3	-85.4914
526.4	-85.4916
526.5	-85.4917
526.6	-85.4918
526.7	-85.492
526.8	-85.4921
526.9	-85.4923
527	-85.4924
527.1	-85.4925
527.2	-85.4927
527.3	-85.4928
527.4	-85.4929
527.5	-85.4931
527.6	-85.4932
527.7	-85.4933
527.8	-85.4935
527.9	-85.4936
528	-85.4937
528.1	-85.4939
528.2	-85.494
528.3	-85.4941
528.4	-85.4942
528.5	-85.4944
528.6	-85.4945
528.7	-85.4946
528.8	-85.4948
528.9	-85.4949
529	-85.495
529.1	-85.4952
529.2	-85.4953
529.3	-85.4954
529.4	-85.4956
529.5	-85.4957
529.6	-85.4958
529.7	-85.496
529.8	-85.4961
529.9	-85.4962
530	-85.4964
530.1	-85.4965
530.2	-85.4966
530.3	-85.4968
530.4	-85.4969
530.5	-85.497
530.6	-85.4972
530.7	-85.4973
530.8	-85.4974
530.9	-85.4975
531	-85.4977
531.1	-85.4978
531.2	-85.4979
531.3	-85.4981
531.4	-85.4982
531.5	-85.4983
531.6	-85.4985
531.7	-85.4986
531.8	-85.4987
531.9	-85.4989
532	-85.499
532.1	-85.4991
532.2	-85.4992
532.3	-85.4994
532.4	-85.4995
532.5	-85.4996
532.6	-85.4998
532.7	-85.4999
532.8	-85.5
532.9	-85.5002
533	-85.5003
533.1	-85.5004
533.2	-85.5005
533.3	-85.5007
533.4	-85.5008
533.5	-85.5009
533.6	-85.5011
533.7	-85.5012
533.8	-85.5013
533.9	-85.5015
534	-85.5016
534.1	-85.5017
534.2	-85.5018
534.3	-85.502
534.4	-85.5021
534.5	-85.5022
534.6	-85.5024
534.7	-85.5025
534.8	-85.5026
534.9	-85.5027
535	-85.5029
535.1	-85.503
535.2	-85.5031
535.3	-85.5033
535.4	-85.5034
535.5	-85.5035
535.6	-85.5036
535.7	-85.5038
535.8	-85.5039
535.9	-85.504
536	-85.5042
536.1	-85.5043
536.2	-85.5044
536.3	-85.5045
536.4	-85.5047
536.5	-85.5048
536.6	-85.5049
536.7	-85.505
536.8	-85.5052
536.9	-85.5053
537	-85.5054
537.1	-85.5056
537.2	-85.5057
537.3	-85.5058
537.4	-85.5059
537.5	-85.5061
537.6	-85.5062
537.7	-85.5063
537.8	-85.5064
537.9	-85.5066
538	-85.5067
538.1	-85.5068
538.2	-85.507
538.3	-85.5071
538.4	-85.5072
538.5	-85.5073
538.6	-85.5075
538.7	-85.5076
538.8	-85.5077
538.9	-85.5078
539	-85.508
539.1	-85.5081
539.2	-85.5082
539.3	-85.5083
539.4	-85.5085
539.5	-85.5086
539.6	-85.5087
539.7	-85.5088
539.8	-85.509
539.9	-85.5091
540	-85.5092
540.1	-85.5093
540.2	-85.5095
540.3	-85.5096
540.4	-85.5097
540.5	-85.5098
540.6	-85.51
540.7	-85.5101
540.8	-85.5102
540.9	-85.5103
541	-85.5105
541.1	-85.5106
541.2	-85.5107
541.3	-85.5108
541.4	-85.511
541.5	-85.5111
541.6	-85.5112
541.7	-85.5113
541.8	-85.5115
541.9	-85.5116
542	-85.5117
542.1	-85.5118
542.2	-85.512
542.3	-85.5121
542.4	-85.5122
542.5	-85.5123
542.6	-85.5125
542.7	-85.5126
542.8	-85.5127
542.9	-85.5128
543	-85.513
543.1	-85.5131
543.2	-85.5132
543.3	-85.5133
543.4	-85.5135
543.5	-85.5136
543.6	-85.5137
543.7	-85.5138
543.8	-85.5139
543.9	-85.5141
544	-85.5142
544.1	-85.5143
544.2	-85.5144
544.3	-85.5146
544.4	-85.5147
544.5	-85.5148
544.6	-85.5149
544.7	-85.5151
544.8	-85.5152
544.9	-85.5153
545	-85.5154
545.1	-85.5155
545.2	-85.5157
545.3	-85.5158
545.4	-85.5159
545.5	-85.516
545.6	-85.5162
545.7	-85.5163
545.8	-85.5164
545.9	-85.5165
546	-85.5166
546.1	-85.5168
546.2	-85.5169
546.3	-85.517
546.4	-85.5171
546.5	-85.5173
546.6	-85.5174
546.7	-85.5175
546.8	-85.5176
546.9	-85.5177
547	-85.5179
547.1	-85.518
547.2	-85.5181
547.3	-85.5182
547.4	-85.5183
547.5	-85.5185
547.6	-85.5186
547.7	-85.5187
547.8	-85.5188
547.9	-85.519
548	-85.5191
548.1	-85.5192
548.2	-85.5193
548.3	-85.5194
548.4	-85.5196
548.5	-85.5197
548.6	-85.5198
548.7	-85.5199
548.8	-85.52
548.9	-85.5202
549	-85.5203
549.1	-85.5204
549.2	-85.5205
549.3	-85.5206
549.4	-85.5208
549.5	-85.5209
549.6	-85.521
549.7	-85.5211
549.8	-85.5212
549.9	-85.5214
550	-85.5215
550.1	-85.5216
550.2	-85.5217
550.3	-85.5218
550.4	-85.522
550.5	-85.5221
550.6	-85.5222
550.7	-85.5223
550.8	-85.5224
550.9	-85.5226
551	-85.5227
551.1	-85.5228
551.2	-85.5229
551.3	-85.523
551.4	-85.5231
551.5	-85.5233
551.6	-85.5234
551.7	-85.5235
551.8	-85.5236
551.9	-85.5237
552	-85.5239
552.1	-85.524
552.2	-85.5241
552.3	-85.5242
552.4	-85.5243
552.5	-85.5244
552.6	-85.5246
552.7	-85.5247
552.8	-85.5248
552.9	-85.5249
553	-85.525
553.1	-85.5252
553.2	-85.5253
553.3	-85.5254
553.4	-85.5255
553.5	-85.5256
553.6	-85.5257
553.7	-85.5259
553.8	-85.526
553.9	-85.5261
554	-85.5262
554.1	-85.5263
554.2	-85.5265
554.3	-85.5266
554.4	-85.5267
554.5	-85.5268
554.6	-85.5269
554.7	-85.527
554.8	-85.5272
554.9	-85.5273
555	-85.5274
555.1	-85.5275
555.2	-85.5276
555.3	-85.5277
555.4	-85.5279
555.5	-85.528
555.6	-85.5281
555.7	-85.5282
555.8	-85.5283
555.9	-85.5284
556	-85.5286
556.1	-85.5287
556.2	-85.5288
556.3	-85.5289
556.4	-85.529
556.5	-85.5291
556.6	-85.5292
556.7	-85.5294
556.8	-85.5295
556.9	-85.5296
557	-85.5297
557.1	-85.5298
557.2	-85.5299
557.3	-85.5301
557.4	-85.5302
557.5	-85.5303
557.6	-85.5304
557.7	-85.5305
557.8	-85.5306
557.9	-85.5308
558	-85.5309
558.1	-85.531
558.2	-85.5311
558.3	-85.5312
558.4	-85.5313
558.5	-85.5314
558.6	-85.5316
558.7	-85.5317
558.8	-85.5318
558.9	-85.5319
559	-85.532
559.1	-85.5321
559.2	-85.5322
559.3	-85.5324
559.4	-85.5325
559.5	-85.5326
559.6	-85.5327
559.7	-85.5328
559.8	-85.5329
559.9	-85.533
560	-85.5332
560.1	-85.5333
560.2	-85.5334
560.3	-85.5335
560.4	-85.5336
560.5	-85.5337
560.6	-85.5338
560.7	-85.534
560.8	-85.5341
560.9	-85.5342
561	-85.5343
561.1	-85.5344
561.2	-85.5345
561.3	-85.5346
561.4	-85.5348
561.5	-85.5349
561.6	-85.535
561.7	-85.5351
561.8	-85.5352
561.9	-85.5353
562	-85.5354
562.1	-85.5355
562.2	-85.5357
562.3	-85.5358
562.4	-85.5359
562.5	-85.536
562.6	-85.5361
562.7	-85.5362
562.8	-85.5363
562.9	-85.5364
563	-85.5366
563.1	-85.5367
563.2	-85.5368
563.3	-85.5369
563.4	-85.537
563.5	-85.5371
563.6	-85.5372
563.7	-85.5373
563.8	-85.5375
563.9	-85.5376
564	-85.5377
564.1	-85.5378
564.2	-85.5379
564.3	-85.538
564.4	-85.5381
564.5	-85.5382
564.6	-85.5384
564.7	-85.5385
564.8	-85.5386
564.9	-85.5387
565	-85.5388
565.1	-85.5389
565.2	-85.539
565.3	-85.5391
565.4	-85.5392
565.5	-85.5394
565.6	-85.5395
565.7	-85.5396
565.8	-85.5397
565.9	-85.5398
566	-85.5399
566.1	-85.54
566.2	-85.5401
566.3	-85.5402
566.4	-85.5404
566.5	-85.5405
566.6	-85.5406
566.7	-85.5407
566.8	-85.5408
566.9	-85.5409
567	-85.541
567.1	-85.5411
567.2	-85.5412
567.3	-85.5413
567.4	-85.5415
567.5	-85.5416
567.6	-85.5417
567.7	-85.5418
567.8	-85.5419
567.9	-85.542
568	-85.5421
568.1	-85.5422
568.2	-85.5423
568.3	-85.5424
568.4	-85.5426
568.5	-85.5427
568.6	-85.5428
568.7	-85.5429
568.8	-85.543
568.9	-85.5431
569	-85.5432
569.1	-85.5433
569.2	-85.5434
569.3	-85.5435
569.4	-85.5437
569.5	-85.5438
569.6	-85.5439
569.7	-85.544
569.8	-85.5441
569.9	-85.5442
570	-85.5443
570.1	-85.5444
570.2	-85.5445
570.3	-85.5446
570.4	-85.5447
570.5	-85.5448
570.6	-85.545
570.7	-85.5451
570.8	-85.5452
570.9	-85.5453
571	-85.5454
571.1	-85.5455
571.2	-85.5456
571.3	-85.5457
571.4	-85.5458
571.5	-85.5459
571.6	-85.546
571.7	-85.5461
571.8	-85.5463
571.9	-85.5464
572	-85.5465
572.1	-85.5466
572.2	-85.5467
572.3	-85.5468
572.4	-85.5469
572.5	-85.547
572.6	-85.5471
572.7	-85.5472
572.8	-85.5473
572.9	-85.5474
573	-85.5475
573.1	-85.5477
573.2	-85.5478
573.3	-85.5479
573.4	-85.548
573.5	-85.5481
573.6	-85.5482
573.7	-85.5483
573.8	-85.5484
573.9	-85.5485
574	-85.5486
574.1	-85.5487
574.2	-85.5488
574.3	-85.5489
574.4	-85.549
574.5	-85.5492
574.6	-85.5493
574.7	-85.5494
574.8	-85.5495
574.9	-85.5496
575	-85.5497
575.1	-85.5498
575.2	-85.5499
575.3	-85.55
575.4	-85.5501
575.5	-85.5502
575.6	-85.5503
575.7	-85.5504
575.8	-85.5505
575.9	-85.5506
576	-85.5507
576.1	-85.5508
576.2	-85.551
576.3	-85.5511
576.4	-85.5512
576.5	-85.5513
576.6	-85.5514
576.7	-85.5515
576.8	-85.5516
576.9	-85.5517
577	-85.5518
577.1	-85.5519
577.2	-85.552
577.3	-85.5521
577.4	-85.5522
577.5	-85.5523
577.6	-85.5524
577.7	-85.5525
577.8	-85.5526
577.9	-85.5527
578	-85.5528
578.1	-85.553
578.2	-85.5531
578.3	-85.5532
578.4	-85.5533
578.5	-85.5534
578.6	-85.5535
578.7	-85.5536
578.8	-85.5537
578.9	-85.5538
579	-85.5539
579.1	-85.554
579.2	-85.5541
579.3	-85.5542
579.4	-85.5543
579.5	-85.5544
579.6	-85.5545
579.7	-85.5546
579.8	-85.5547
579.9	-85.5548
580	-85.5549
580.1	-85.555
580.2	-85.5551
580.3	-85.5552
580.4	-85.5553
580.5	-85.5555
580.6	-85.5556
580.7	-85.5557
580.8	-85.5558
580.9	-85.5559
581	-85.556
581.1	-85.5561
581.2	-85.5562
581.3	-85.5563
581.4	-85.5564
581.5	-85.5565
581.6	-85.5566
581.7	-85.5567
581.8	-85.5568
581.9	-85.5569
582	-85.557
582.1	-85.5571
582.2	-85.5572
582.3	-85.5573
582.4	-85.5574
582.5	-85.5575
582.6	-85.5576
582.7	-85.5577
582.8	-85.5578
582.9	-85.5579
583	-85.558
583.1	-85.5581
583.2	-85.5582
583.3	-85.5583
583.4	-85.5584
583.5	-85.5585
583.6	-85.5586
583.7	-85.5587
583.8	-85.5588
583.9	-85.5589
584	-85.559
584.1	-85.5592
584.2	-85.5593
584.3	-85.5594
584.4	-85.5595
584.5	-85.5596
584.6	-85.5597
584.7	-85.5598
584.8	-85.5599
584.9	-85.56
585	-85.5601
585.1	-85.5602
585.2	-85.5603
585.3	-85.5604
585.4	-85.5605
585.5	-85.5606
585.6	-85.5607
585.7	-85.5608
585.8	-85.5609
585.9	-85.561
586	-85.5611
586.1	-85.5612
586.2	-85.5613
586.3	-85.5614
586.4	-85.5615
586.5	-85.5616
586.6	-85.5617
586.7	-85.5618
586.8	-85.5619
586.9	-85.562
587	-85.5621
587.1	-85.5622
587.2	-85.5623
587.3	-85.5624
587.4	-85.5625
587.5	-85.5626
587.6	-85.5627
587.7	-85.5628
587.8	-85.5629
587.9	-85.563
588	-85.5631
588.1	-85.5632
588.2	-85.5633
588.3	-85.5634
588.4	-85.5635
588.5	-85.5636
588.6	-85.5637
588.7	-85.5638
588.8	-85.5639
588.9	-85.564
589	-85.5641
589.1	-85.5642
589.2	-85.5643
589.3	-85.5644
589.4	-85.5645
589.5	-85.5646
589.6	-85.5647
589.7	-85.5648
589.8	-85.5649
589.9	-85.565
590	-85.5651
590.1	-85.5652
590.2	-85.5653
590.3	-85.5654
590.4	-85.5655
590.5	-85.5656
590.6	-85.5657
590.7	-85.5658
590.8	-85.5659
590.9	-85.566
591	-85.5661
591.1	-85.5662
591.2	-85.5663
591.3	-85.5664
591.4	-85.5665
591.5	-85.5666
591.6	-85.5667
591.7	-85.5668
591.8	-85.5669
591.9	-85.567
592	-85.5671
592.1	-85.5671
592.2	-85.5672
592.3	-85.5673
592.4	-85.5674
592.5	-85.5675
592.6	-85.5676
592.7	-85.5677
592.8	-85.5678
592.9	-85.5679
593	-85.568
593.1	-85.5681
593.2	-85.5682
593.3	-85.5683
593.4	-85.5684
593.5	-85.5685
593.6	-85.5686
593.7	-85.5687
593.8	-85.5688
593.9	-85.5689
594	-85.569
594.1	-85.5691
594.2	-85.5692
594.3	-85.5693
594.4	-85.5694
594.5	-85.5695
594.6	-85.5696
594.7	-85.5697
594.8	-85.5698
594.9	-85.5699
595	-85.57
595.1	-85.5701
595.2	-85.5702
595.3	-85.5703
595.4	-85.5704
595.5	-85.5705
595.6	-85.5706
595.7	-85.5707
595.8	-85.5707
595.9	-85.5708
596	-85.5709
596.1	-85.571
596.2	-85.5711
596.3	-85.5712
596.4	-85.5713
596.5	-85.5714
596.6	-85.5715
596.7	-85.5716
596.8	-85.5717
596.9	-85.5718
597	-85.5719
597.1	-85.572
597.2	-85.5721
597.3	-85.5722
597.4	-85.5723
597.5	-85.5724
597.6	-85.5725
597.7	-85.5726
597.8	-85.5727
597.9	-85.5728
598	-85.5729
598.1	-85.573
598.2	-85.573
598.3	-85.5731
598.4	-85.5732
598.5	-85.5733
598.6	-85.5734
598.7	-85.5735
598.8	-85.5736
598.9	-85.5737
599	-85.5738
599.1	-85.5739
599.2	-85.574
599.3	-85.5741
599.4	-85.5742
599.5	-85.5743
599.6	-85.5744
599.7	-85.5745
599.8	-85.5746
599.9	-85.5747
600	-85.5748
600.1	-85.5749
600.2	-85.5749
600.3	-85.575
600.4	-85.5751
600.5	-85.5752
600.6	-85.5753
600.7	-85.5754
600.8	-85.5755
600.9	-85.5756
601	-85.5757
601.1	-85.5758
601.2	-85.5759
601.3	-85.576
601.4	-85.5761
601.5	-85.5762
601.6	-85.5763
601.7	-85.5764
601.8	-85.5765
601.9	-85.5765
602	-85.5766
602.1	-85.5767
602.2	-85.5768
602.3	-85.5769
602.4	-85.577
602.5	-85.5771
602.6	-85.5772
602.7	-85.5773
602.8	-85.5774
602.9	-85.5775
603	-85.5776
603.1	-85.5777
603.2	-85.5778
603.3	-85.5779
603.4	-85.5779
603.5	-85.578
603.6	-85.5781
603.7	-85.5782
603.8	-85.5783
603.9	-85.5784
604	-85.5785
604.1	-85.5786
604.2	-85.5787
604.3	-85.5788
604.4	-85.5789
604.5	-85.579
604.6	-85.5791
604.7	-85.5792
604.8	-85.5792
604.9	-85.5793
605	-85.5794
605.1	-85.5795
605.2	-85.5796
605.3	-85.5797
605.4	-85.5798
605.5	-85.5799
605.6	-85.58
605.7	-85.5801
605.8	-85.5802
605.9	-85.5803
606	-85.5804
606.1	-85.5804
606.2	-85.5805
606.3	-85.5806
606.4	-85.5807
606.5	-85.5808
606.6	-85.5809
606.7	-85.581
606.8	-85.5811
606.9	-85.5812
607	-85.5813
607.1	-85.5814
607.2	-85.5815
607.3	-85.5815
607.4	-85.5816
607.5	-85.5817
607.6	-85.5818
607.7	-85.5819
607.8	-85.582
607.9	-85.5821
608	-85.5822
608.1	-85.5823
608.2	-85.5824
608.3	-85.5825
608.4	-85.5825
608.5	-85.5826
608.6	-85.5827
608.7	-85.5828
608.8	-85.5829
608.9	-85.583
609	-85.5831
609.1	-85.5832
609.2	-85.5833
609.3	-85.5834
609.4	-85.5835
609.5	-85.5835
609.6	-85.5836
609.7	-85.5837
609.8	-85.5838
609.9	-85.5839
610	-85.584
610.1	-85.5841
610.2	-85.5842
610.3	-85.5843
610.4	-85.5844
610.5	-85.5845
610.6	-85.5845
610.7	-85.5846
610.8	-85.5847
610.9	-85.5848
611	-85.5849
611.1	-85.585
611.2	-85.5851
611.3	-85.5852
611.4	-85.5853
611.5	-85.5853
611.6	-85.5854
611.7	-85.5855
611.8	-85.5856
611.9	-85.5857
612	-85.5858
612.1	-85.5859
612.2	-85.586
612.3	-85.5861
612.4	-85.5862
612.5	-85.5862
612.6	-85.5863
612.7	-85.5864
612.8	-85.5865
612.9	-85.5866
613	-85.5867
613.1	-85.5868
613.2	-85.5869
613.3	-85.587
613.4	-85.587
613.5	-85.5871
613.6	-85.5872
613.7	-85.5873
613.8	-85.5874
613.9	-85.5875
614	-85.5876
614.1	-85.5877
614.2	-85.5878
614.3	-85.5878
614.4	-85.5879
614.5	-85.588
614.6	-85.5881
614.7	-85.5882
614.8	-85.5883
614.9	-85.5884
615	-85.5885
615.1	-85.5886
615.2	-85.5886
615.3	-85.5887
615.4	-85.5888
615.5	-85.5889
615.6	-85.589
615.7	-85.5891
615.8	-85.5892
615.9	-85.5893
616	-85.5893
616.1	-85.5894
616.2	-85.5895
616.3	-85.5896
616.4	-85.5897
616.5	-85.5898
616.6	-85.5899
616.7	-85.59
616.8	-85.59
616.9	-85.5901
617	-85.5902
617.1	-85.5903
617.2	-85.5904
617.3	-85.5905
617.4	-85.5906
617.5	-85.5907
617.6	-85.5907
617.7	-85.5908
617.8	-85.5909
617.9	-85.591
618	-85.5911
618.1	-85.5912
618.2	-85.5913
618.3	-85.5914
618.4	-85.5914
618.5	-85.5915
618.6	-85.5916
618.7	-85.5917
618.8	-85.5918
618.9	-85.5919
619	-85.592
619.1	-85.592
619.2	-85.5921
619.3	-85.5922
619.4	-85.5923
619.5	-85.5924
619.6	-85.5925
619.7	-85.5926
619.8	-85.5927
619.9	-85.5927
620	-85.5928
620.1	-85.5929
620.2	-85.593
620.3	-85.5931
620.4	-85.5932
620.5	-85.5933
620.6	-85.5933
620.7	-85.5934
620.8	-85.5935
620.9	-85.5936
621	-85.5937
621.1	-85.5938
621.2	-85.5939
621.3	-85.5939
621.4	-85.594
621.5	-85.5941
621.6	-85.5942
621.7	-85.5943
621.8	-85.5944
621.9	-85.5945
622	-85.5945
622.1	-85.5946
622.2	-85.5947
622.3	-85.5948
622.4	-85.5949
622.5	-85.595
622.6	-85.5951
622.7	-85.5951
622.8	-85.5952
622.9	-85.5953
623	-85.5954
623.1	-85.5955
623.2	-85.5956
623.3	-85.5956
623.4	-85.5957
623.5	-85.5958
623.6	-85.5959
623.7	-85.596
623.8	-85.5961
623.9	-85.5962
624	-85.5962
624.1	-85.5963
624.2	-85.5964
624.3	-85.5965
624.4	-85.5966
624.5	-85.5967
624.6	-85.5967
624.7	-85.5968
624.8	-85.5969
624.9	-85.597
625	-85.5971
625.1	-85.5972
625.2	-85.5973
625.3	-85.5973
625.4	-85.5974
625.5	-85.5975
625.6	-85.5976
625.7	-85.5977
625.8	-85.5978
625.9	-85.5978
626	-85.5979
626.1	-85.598
626.2	-85.5981
626.3	-85.5982
626.4	-85.5983
626.5	-85.5983
626.6	-85.5984
626.7	-85.5985
626.8	-85.5986
626.9	-85.5987
627	-85.5988
627.1	-85.5988
627.2	-85.5989
627.3	-85.599
627.4	-85.5991
627.5	-85.5992
627.6	-85.5993
627.7	-85.5993
627.8	-85.5994
627.9	-85.5995
628	-85.5996
628.1	-85.5997
628.2	-85.5998
628.3	-85.5998
628.4	-85.5999
628.5	-85.6
628.6	-85.6001
628.7	-85.6002
628.8	-85.6003
628.9	-85.6003
629	-85.6004
629.1	-85.6005
629.2	-85.6006
629.3	-85.6007
629.4	-85.6008
629.5	-85.6008
629.6	-85.6009
629.7	-85.601
629.8	-85.6011
629.9	-85.6012
630	-85.6012
630.1	-85.6013
630.2	-85.6014
630.3	-85.6015
630.4	-85.6016
630.5	-85.6017
630.6	-85.6017
630.7	-85.6018
630.8	-85.6019
630.9	-85.602
631	-85.6021
631.1	-85.6022
631.2	-85.6022
631.3	-85.6023
631.4	-85.6024
631.5	-85.6025
631.6	-85.6026
631.7	-85.6026
631.8	-85.6027
631.9	-85.6028
632	-85.6029
632.1	-85.603
632.2	-85.6031
632.3	-85.6031
632.4	-85.6032
632.5	-85.6033
632.6	-85.6034
632.7	-85.6035
632.8	-85.6035
632.9	-85.6036
633	-85.6037
633.1	-85.6038
633.2	-85.6039
633.3	-85.6039
633.4	-85.604
633.5	-85.6041
633.6	-85.6042
633.7	-85.6043
633.8	-85.6044
633.9	-85.6044
634	-85.6045
634.1	-85.6046
634.2	-85.6047
634.3	-85.6048
634.4	-85.6048
634.5	-85.6049
634.6	-85.605
634.7	-85.6051
634.8	-85.6052
634.9	-85.6052
635	-85.6053
635.1	-85.6054
635.2	-85.6055
635.3	-85.6056
635.4	-85.6056
635.5	-85.6057
635.6	-85.6058
635.7	-85.6059
635.8	-85.606
635.9	-85.606
636	-85.6061
636.1	-85.6062
636.2	-85.6063
636.3	-85.6064
636.4	-85.6064
636.5	-85.6065
636.6	-85.6066
636.7	-85.6067
636.8	-85.6068
636.9	-85.6068
637	-85.6069
637.1	-85.607
637.2	-85.6071
637.3	-85.6072
637.4	-85.6072
637.5	-85.6073
637.6	-85.6074
637.7	-85.6075
637.8	-85.6076
637.9	-85.6076
638	-85.6077
638.1	-85.6078
638.2	-85.6079
638.3	-85.608
638.4	-85.608
638.5	-85.6081
638.6	-85.6082
638.7	-85.6083
638.8	-85.6084
638.9	-85.6084
639	-85.6085
639.1	-85.6086
639.2	-85.6087
639.3	-85.6087
639.4	-85.6088
639.5	-85.6089
639.6	-85.609
639.7	-85.6091
639.8	-85.6091
639.9	-85.6092
640	-85.6093
640.1	-85.6094
640.2	-85.6095
640.3	-85.6095
640.4	-85.6096
640.5	-85.6097
640.6	-85.6098
640.7	-85.6098
640.8	-85.6099
640.9	-85.61
641	-85.6101
641.1	-85.6102
641.2	-85.6102
641.3	-85.6103
641.4	-85.6104
641.5	-85.6105
641.6	-85.6106
641.7	-85.6106
641.8	-85.6107
641.9	-85.6108
642	-85.6109
642.1	-85.6109
642.2	-85.611
642.3	-85.6111
642.4	-85.6112
642.5	-85.6113
642.6	-85.6113
642.7	-85.6114
642.8	-85.6115
642.9	-85.6116
643	-85.6116
643.1	-85.6117
643.2	-85.6118
643.3	-85.6119
643.4	-85.612
643.5	-85.612
643.6	-85.6121
643.7	-85.6122
643.8	-85.6123
643.9	-85.6123
644	-85.6124
644.1	-85.6125
644.2	-85.6126
644.3	-85.6126
644.4	-85.6127
644.5	-85.6128
644.6	-85.6129
644.7	-85.613
644.8	-85.613
644.9	-85.6131
645	-85.6132
645.1	-85.6133
645.2	-85.6133
645.3	-85.6134
645.4	-85.6135
645.5	-85.6136
645.6	-85.6136
645.7	-85.6137
645.8	-85.6138
645.9	-85.6139
646	-85.614
646.1	-85.614
646.2	-85.6141
646.3	-85.6142
646.4	-85.6143
646.5	-85.6143
646.6	-85.6144
646.7	-85.6145
646.8	-85.6146
646.9	-85.6146
647	-85.6147
647.1	-85.6148
647.2	-85.6149
647.3	-85.6149
647.4	-85.615
647.5	-85.6151
647.6	-85.6152
647.7	-85.6152
647.8	-85.6153
647.9	-85.6154
648	-85.6155
648.1	-85.6156
648.2	-85.6156
648.3	-85.6157
648.4	-85.6158
648.5	-85.6159
648.6	-85.6159
648.7	-85.616
648.8	-85.6161
648.9	-85.6162
649	-85.6162
649.1	-85.6163
649.2	-85.6164
649.3	-85.6165
649.4	-85.6165
649.5	-85.6166
649.6	-85.6167
649.7	-85.6168
649.8	-85.6168
649.9	-85.6169
650	-85.617
650.1	-85.6171
650.2	-85.6171
650.3	-85.6172
650.4	-85.6173
650.5	-85.6174
650.6	-85.6174
650.7	-85.6175
650.8	-85.6176
650.9	-85.6177
651	-85.6177
651.1	-85.6178
651.2	-85.6179
651.3	-85.618
651.4	-85.618
651.5	-85.6181
651.6	-85.6182
651.7	-85.6183
651.8	-85.6183
651.9	-85.6184
652	-85.6185
652.1	-85.6186
652.2	-85.6186
652.3	-85.6187
652.4	-85.6188
652.5	-85.6189
652.6	-85.6189
652.7	-85.619
652.8	-85.6191
652.9	-85.6192
653	-85.6192
653.1	-85.6193
653.2	-85.6194
653.3	-85.6194
653.4	-85.6195
653.5	-85.6196
653.6	-85.6197
653.7	-85.6197
653.8	-85.6198
653.9	-85.6199
654	-85.62
654.1	-85.62
654.2	-85.6201
654.3	-85.6202
654.4	-85.6203
654.5	-85.6203
654.6	-85.6204
654.7	-85.6205
654.8	-85.6206
654.9	-85.6206
655	-85.6207
655.1	-85.6208
655.2	-85.6208
655.3	-85.6209
655.4	-85.621
655.5	-85.6211
655.6	-85.6211
655.7	-85.6212
655.8	-85.6213
655.9	-85.6214
656	-85.6214
656.1	-85.6215
656.2	-85.6216
656.3	-85.6217
656.4	-85.6217
656.5	-85.6218
656.6	-85.6219
656.7	-85.6219
656.8	-85.622
656.9	-85.6221
657	-85.6222
657.1	-85.6222
657.2	-85.6223
657.3	-85.6224
657.4	-85.6225
657.5	-85.6225
657.6	-85.6226
657.7	-85.6227
657.8	-85.6227
657.9	-85.6228
658	-85.6229
658.1	-85.623
658.2	-85.623
658.3	-85.6231
658.4	-85.6232
658.5	-85.6233
658.6	-85.6233
658.7	-85.6234
658.8	-85.6235
658.9	-85.6235
659	-85.6236
659.1	-85.6237
659.2	-85.6238
659.3	-85.6238
659.4	-85.6239
659.5	-85.624
659.6	-85.624
659.7	-85.6241
659.8	-85.6242
659.9	-85.6243
660	-85.6243
660.1	-85.6244
660.2	-85.6245
660.3	-85.6246
660.4	-85.6246
660.5	-85.6247
660.6	-85.6248
660.7	-85.6248
660.8	-85.6249
660.9	-85.625
661	-85.6251
661.1	-85.6251
661.2	-85.6252
661.3	-85.6253
661.4	-85.6253
661.5	-85.6254
661.6	-85.6255
661.7	-85.6256
661.8	-85.6256
661.9	-85.6257
662	-85.6258
662.1	-85.6258
662.2	-85.6259
662.3	-85.626
662.4	-85.626
662.5	-85.6261
662.6	-85.6262
662.7	-85.6263
662.8	-85.6263
662.9	-85.6264
663	-85.6265
663.1	-85.6265
663.2	-85.6266
663.3	-85.6267
663.4	-85.6268
663.5	-85.6268
663.6	-85.6269
663.7	-85.627
663.8	-85.627
663.9	-85.6271
664	-85.6272
664.1	-85.6273
664.2	-85.6273
664.3	-85.6274
664.4	-85.6275
664.5	-85.6275
664.6	-85.6276
664.7	-85.6277
664.8	-85.6277
664.9	-85.6278
665	-85.6279
665.1	-85.628
665.2	-85.628
665.3	-85.6281
665.4	-85.6282
665.5	-85.6282
665.6	-85.6283
665.7	-85.6284
665.8	-85.6284
665.9	-85.6285
666	-85.6286
666.1	-85.6287
666.2	-85.6287
666.3	-85.6288
666.4	-85.6289
666.5	-85.6289
666.6	-85.629
666.7	-85.6291
666.8	-85.6291
666.9	-85.6292
667	-85.6293
667.1	-85.6294
667.2	-85.6294
667.3	-85.6295
667.4	-85.6296
667.5	-85.6296
667.6	-85.6297
667.7	-85.6298
667.8	-85.6298
667.9	-85.6299
668	-85.63
668.1	-85.63
668.2	-85.6301
668.3	-85.6302
668.4	-85.6303
668.5	-85.6303
668.6	-85.6304
668.7	-85.6305
668.8	-85.6305
668.9	-85.6306
669	-85.6307
669.1	-85.6307
669.2	-85.6308
669.3	-85.6309
669.4	-85.6309
669.5	-85.631
669.6	-85.6311
669.7	-85.6312
669.8	-85.6312
669.9	-85.6313
670	-85.6314
670.1	-85.6314
670.2	-85.6315
670.3	-85.6316
670.4	-85.6316
670.5	-85.6317
670.6	-85.6318
670.7	-85.6318
670.8	-85.6319
670.9	-85.632
671	-85.632
671.1	-85.6321
671.2	-85.6322
671.3	-85.6322
671.4	-85.6323
671.5	-85.6324
671.6	-85.6325
671.7	-85.6325
671.8	-85.6326
671.9	-85.6327
672	-85.6327
672.1	-85.6328
672.2	-85.6329
672.3	-85.6329
672.4	-85.633
672.5	-85.6331
672.6	-85.6331
672.7	-85.6332
672.8	-85.6333
672.9	-85.6333
673	-85.6334
673.1	-85.6335
673.2	-85.6335
673.3	-85.6336
673.4	-85.6337
673.5	-85.6337
673.6	-85.6338
673.7	-85.6339
673.8	-85.6339
673.9	-85.634
674	-85.6341
674.1	-85.6341
674.2	-85.6342
674.3	-85.6343
674.4	-85.6343
674.5	-85.6344
674.6	-85.6345
674.7	-85.6345
674.8	-85.6346
674.9	-85.6347
675	-85.6348
675.1	-85.6348
675.2	-85.6349
675.3	-85.635
675.4	-85.635
675.5	-85.6351
675.6	-85.6352
675.7	-85.6352
675.8	-85.6353
675.9	-85.6354
676	-85.6354
676.1	-85.6355
676.2	-85.6356
676.3	-85.6356
676.4	-85.6357
676.5	-85.6358
676.6	-85.6358
676.7	-85.6359
676.8	-85.636
676.9	-85.636
677	-85.6361
677.1	-85.6362
677.2	-85.6362
677.3	-85.6363
677.4	-85.6364
677.5	-85.6364
677.6	-85.6365
677.7	-85.6366
677.8	-85.6366
677.9	-85.6367
678	-85.6368
678.1	-85.6368
678.2	-85.6369
678.3	-85.6369
678.4	-85.637
678.5	-85.6371
678.6	-85.6371
678.7	-85.6372
678.8	-85.6373
678.9	-85.6373
679	-85.6374
679.1	-85.6375
679.2	-85.6375
679.3	-85.6376
679.4	-85.6377
679.5	-85.6377
679.6	-85.6378
679.7	-85.6379
679.8	-85.6379
679.9	-85.638
680	-85.6381
680.1	-85.6381
680.2	-85.6382
680.3	-85.6383
680.4	-85.6383
680.5	-85.6384
680.6	-85.6385
680.7	-85.6385
680.8	-85.6386
680.9	-85.6387
681	-85.6387
681.1	-85.6388
681.2	-85.6389
681.3	-85.6389
681.4	-85.639
681.5	-85.6391
681.6	-85.6391
681.7	-85.6392
681.8	-85.6392
681.9	-85.6393
682	-85.6394
682.1	-85.6394
682.2	-85.6395
682.3	-85.6396
682.4	-85.6396
682.5	-85.6397
682.6	-85.6398
682.7	-85.6398
682.8	-85.6399
682.9	-85.64
683	-85.64
683.1	-85.6401
683.2	-85.6402
683.3	-85.6402
683.4	-85.6403
683.5	-85.6403
683.6	-85.6404
683.7	-85.6405
683.8	-85.6405
683.9	-85.6406
684	-85.6407
684.1	-85.6407
684.2	-85.6408
684.3	-85.6409
684.4	-85.6409
684.5	-85.641
684.6	-85.6411
684.7	-85.6411
684.8	-85.6412
684.9	-85.6412
685	-85.6413
685.1	-85.6414
685.2	-85.6414
685.3	-85.6415
685.4	-85.6416
685.5	-85.6416
685.6	-85.6417
685.7	-85.6418
685.8	-85.6418
685.9	-85.6419
686	-85.642
686.1	-85.642
686.2	-85.6421
686.3	-85.6421
686.4	-85.6422
686.5	-85.6423
686.6	-85.6423
686.7	-85.6424
686.8	-85.6425
686.9	-85.6425
687	-85.6426
687.1	-85.6427
687.2	-85.6427
687.3	-85.6428
687.4	-85.6428
687.5	-85.6429
687.6	-85.643
687.7	-85.643
687.8	-85.6431
687.9	-85.6432
688	-85.6432
688.1	-85.6433
688.2	-85.6434
688.3	-85.6434
688.4	-85.6435
688.5	-85.6435
688.6	-85.6436
688.7	-85.6437
688.8	-85.6437
688.9	-85.6438
689	-85.6439
689.1	-85.6439
689.2	-85.644
689.3	-85.644
689.4	-85.6441
689.5	-85.6442
689.6	-85.6442
689.7	-85.6443
689.8	-85.6444
689.9	-85.6444
690	-85.6445
690.1	-85.6445
690.2	-85.6446
690.3	-85.6447
690.4	-85.6447
690.5	-85.6448
690.6	-85.6449
690.7	-85.6449
690.8	-85.645
690.9	-85.6451
691	-85.6451
691.1	-85.6452
691.2	-85.6452
691.3	-85.6453
691.4	-85.6454
691.5	-85.6454
691.6	-85.6455
691.7	-85.6455
691.8	-85.6456
691.9	-85.6457
692	-85.6457
692.1	-85.6458
692.2	-85.6459
692.3	-85.6459
692.4	-85.646
692.5	-85.646
692.6	-85.6461
692.7	-85.6462
692.8	-85.6462
692.9	-85.6463
693	-85.6464
693.1	-85.6464
693.2	-85.6465
693.3	-85.6465
693.4	-85.6466
693.5	-85.6467
693.6	-85.6467
693.7	-85.6468
693.8	-85.6469
693.9	-85.6469
694	-85.647
694.1	-85.647
694.2	-85.6471
694.3	-85.6472
694.4	-85.6472
694.5	-85.6473
694.6	-85.6473
694.7	-85.6474
694.8	-85.6475
694.9	-85.6475
695	-85.6476
695.1	-85.6477
695.2	-85.6477
695.3	-85.6478
695.4	-85.6478
695.5	-85.6479
695.6	-85.648
695.7	-85.648
695.8	-85.6481
695.9	-85.6481
696	-85.6482
696.1	-85.6483
696.2	-85.6483
696.3	-85.6484
696.4	-85.6484
696.5	-85.6485
696.6	-85.6486
696.7	-85.6486
696.8	-85.6487
696.9	-85.6487
697	-85.6488
697.1	-85.6489
697.2	-85.6489
697.3	-85.649
697.4	-85.6491
697.5	-85.6491
697.6	-85.6492
697.7	-85.6492
697.8	-85.6493
697.9	-85.6494
698	-85.6494
698.1	-85.6495
698.2	-85.6495
698.3	-85.6496
698.4	-85.6497
698.5	-85.6497
698.6	-85.6498
698.7	-85.6498
698.8	-85.6499
698.9	-85.65
699	-85.65
699.1	-85.6501
699.2	-85.6501
699.3	-85.6502
699.4	-85.6503
699.5	-85.6503
699.6	-85.6504
699.7	-85.6504
699.8	-85.6505
699.9	-85.6506
700	-85.6506
700.1	-85.6507
700.2	-85.6507
700.3	-85.6508
700.4	-85.6509
700.5	-85.6509
700.6	-85.651
700.7	-85.651
700.8	-85.6511
700.9	-85.6512
701	-85.6512
701.1	-85.6513
701.2	-85.6513
701.3	-85.6514
701.4	-85.6515
701.5	-85.6515
701.6	-85.6516
701.7	-85.6516
701.8	-85.6517
701.9	-85.6518
702	-85.6518
702.1	-85.6519
702.2	-85.6519
702.3	-85.652
702.4	-85.6521
702.5	-85.6521
702.6	-85.6522
702.7	-85.6522
702.8	-85.6523
702.9	-85.6524
703	-85.6524
703.1	-85.6525
703.2	-85.6525
703.3	-85.6526
703.4	-85.6526
703.5	-85.6527
703.6	-85.6528
703.7	-85.6528
703.8	-85.6529
703.9	-85.6529
704	-85.653
704.1	-85.6531
704.2	-85.6531
704.3	-85.6532
704.4	-85.6532
704.5	-85.6533
704.6	-85.6534
704.7	-85.6534
704.8	-85.6535
704.9	-85.6535
705	-85.6536
705.1	-85.6536
705.2	-85.6537
705.3	-85.6538
705.4	-85.6538
705.5	-85.6539
705.6	-85.6539
705.7	-85.654
705.8	-85.6541
705.9	-85.6541
706	-85.6542
706.1	-85.6542
706.2	-85.6543
706.3	-85.6544
706.4	-85.6544
706.5	-85.6545
706.6	-85.6545
706.7	-85.6546
706.8	-85.6546
706.9	-85.6547
707	-85.6548
707.1	-85.6548
707.2	-85.6549
707.3	-85.6549
707.4	-85.655
707.5	-85.655
707.6	-85.6551
707.7	-85.6552
707.8	-85.6552
707.9	-85.6553
708	-85.6553
708.1	-85.6554
708.2	-85.6555
708.3	-85.6555
708.4	-85.6556
708.5	-85.6556
708.6	-85.6557
708.7	-85.6557
708.8	-85.6558
708.9	-85.6559
709	-85.6559
709.1	-85.656
709.2	-85.656
709.3	-85.6561
709.4	-85.6561
709.5	-85.6562
709.6	-85.6563
709.7	-85.6563
709.8	-85.6564
709.9	-85.6564
710	-85.6565
710.1	-85.6565
710.2	-85.6566
710.3	-85.6567
710.4	-85.6567
710.5	-85.6568
710.6	-85.6568
710.7	-85.6569
710.8	-85.6569
710.9	-85.657
711	-85.6571
711.1	-85.6571
711.2	-85.6572
711.3	-85.6572
711.4	-85.6573
711.5	-85.6573
711.6	-85.6574
711.7	-85.6575
711.8	-85.6575
711.9	-85.6576
712	-85.6576
712.1	-85.6577
712.2	-85.6577
712.3	-85.6578
712.4	-85.6579
712.5	-85.6579
712.6	-85.658
712.7	-85.658
712.8	-85.6581
712.9	-85.6581
713	-85.6582
713.1	-85.6583
713.2	-85.6583
713.3	-85.6584
713.4	-85.6584
713.5	-85.6585
713.6	-85.6585
713.7	-85.6586
713.8	-85.6587
713.9	-85.6587
714	-85.6588
714.1	-85.6588
714.2	-85.6589
714.3	-85.6589
714.4	-85.659
714.5	-85.659
714.6	-85.6591
714.7	-85.6592
714.8	-85.6592
714.9	-85.6593
715	-85.6593
715.1	-85.6594
715.2	-85.6594
715.3	-85.6595
715.4	-85.6596
715.5	-85.6596
715.6	-85.6597
715.7	-85.6597
715.8	-85.6598
715.9	-85.6598
716	-85.6599
716.1	-85.6599
716.2	-85.66
716.3	-85.6601
716.4	-85.6601
716.5	-85.6602
716.6	-85.6602
716.7	-85.6603
716.8	-85.6603
716.9	-85.6604
717	-85.6604
717.1	-85.6605
717.2	-85.6606
717.3	-85.6606
717.4	-85.6607
717.5	-85.6607
717.6	-85.6608
717.7	-85.6608
717.8	-85.6609
717.9	-85.6609
718	-85.661
718.1	-85.6611
718.2	-85.6611
718.3	-85.6612
718.4	-85.6612
718.5	-85.6613
718.6	-85.6613
718.7	-85.6614
718.8	-85.6614
718.9	-85.6615
719	-85.6616
719.1	-85.6616
719.2	-85.6617
719.3	-85.6617
719.4	-85.6618
719.5	-85.6618
719.6	-85.6619
719.7	-85.6619
719.8	-85.662
719.9	-85.662
720	-85.6621
720.1	-85.6622
720.2	-85.6622
720.3	-85.6623
720.4	-85.6623
720.5	-85.6624
720.6	-85.6624
720.7	-85.6625
720.8	-85.6625
720.9	-85.6626
721	-85.6627
721.1	-85.6627
721.2	-85.6628
721.3	-85.6628
721.4	-85.6629
721.5	-85.6629
721.6	-85.663
721.7	-85.663
721.8	-85.6631
721.9	-85.6631
722	-85.6632
722.1	-85.6633
722.2	-85.6633
722.3	-85.6634
722.4	-85.6634
722.5	-85.6635
722.6	-85.6635
722.7	-85.6636
722.8	-85.6636
722.9	-85.6637
723	-85.6637
723.1	-85.6638
723.2	-85.6638
723.3	-85.6639
723.4	-85.664
723.5	-85.664
723.6	-85.6641
723.7	-85.6641
723.8	-85.6642
723.9	-85.6642
724	-85.6643
724.1	-85.6643
724.2	-85.6644
724.3	-85.6644
724.4	-85.6645
724.5	-85.6645
724.6	-85.6646
724.7	-85.6647
724.8	-85.6647
724.9	-85.6648
725	-85.6648
725.1	-85.6649
725.2	-85.6649
725.3	-85.665
725.4	-85.665
725.5	-85.6651
725.6	-85.6651
725.7	-85.6652
725.8	-85.6652
725.9	-85.6653
726	-85.6654
726.1	-85.6654
726.2	-85.6655
726.3	-85.6655
726.4	-85.6656
726.5	-85.6656
726.6	-85.6657
726.7	-85.6657
726.8	-85.6658
726.9	-85.6658
727	-85.6659
727.1	-85.6659
727.2	-85.666
727.3	-85.666
727.4	-85.6661
727.5	-85.6662
727.6	-85.6662
727.7	-85.6663
727.8	-85.6663
727.9	-85.6664
728	-85.6664
728.1	-85.6665
728.2	-85.6665
728.3	-85.6666
728.4	-85.6666
728.5	-85.6667
728.6	-85.6667
728.7	-85.6668
728.8	-85.6668
728.9	-85.6669
729	-85.6669
729.1	-85.667
729.2	-85.6671
729.3	-85.6671
729.4	-85.6672
729.5	-85.6672
729.6	-85.6673
729.7	-85.6673
729.8	-85.6674
729.9	-85.6674
730	-85.6675
730.1	-85.6675
730.2	-85.6676
730.3	-85.6676
730.4	-85.6677
730.5	-85.6677
730.6	-85.6678
730.7	-85.6678
730.8	-85.6679
730.9	-85.6679
731	-85.668
731.1	-85.668
731.2	-85.6681
731.3	-85.6682
731.4	-85.6682
731.5	-85.6683
731.6	-85.6683
731.7	-85.6684
731.8	-85.6684
731.9	-85.6685
732	-85.6685
732.1	-85.6686
732.2	-85.6686
732.3	-85.6687
732.4	-85.6687
732.5	-85.6688
732.6	-85.6688
732.7	-85.6689
732.8	-85.6689
732.9	-85.669
733	-85.669
733.1	-85.6691
733.2	-85.6691
733.3	-85.6692
733.4	-85.6692
733.5	-85.6693
733.6	-85.6693
733.7	-85.6694
733.8	-85.6695
733.9	-85.6695
734	-85.6696
734.1	-85.6696
734.2	-85.6697
734.3	-85.6697
734.4	-85.6698
734.5	-85.6698
734.6	-85.6699
734.7	-85.6699
734.8	-85.67
734.9	-85.67
735	-85.6701
735.1	-85.6701
735.2	-85.6702
735.3	-85.6702
735.4	-85.6703
735.5	-85.6703
735.6	-85.6704
735.7	-85.6704
735.8	-85.6705
735.9	-85.6705
736	-85.6706
736.1	-85.6706
736.2	-85.6707
736.3	-85.6707
736.4	-85.6708
736.5	-85.6708
736.6	-85.6709
736.7	-85.6709
736.8	-85.671
736.9	-85.671
737	-85.6711
737.1	-85.6711
737.2	-85.6712
737.3	-85.6712
737.4	-85.6713
737.5	-85.6713
737.6	-85.6714
737.7	-85.6714
737.8	-85.6715
737.9	-85.6715
738	-85.6716
738.1	-85.6717
738.2	-85.6717
738.3	-85.6718
738.4	-85.6718
738.5	-85.6719
738.6	-85.6719
738.7	-85.672
738.8	-85.672
738.9	-85.6721
739	-85.6721
739.1	-85.6722
739.2	-85.6722
739.3	-85.6723
739.4	-85.6723
739.5	-85.6724
739.6	-85.6724
739.7	-85.6725
739.8	-85.6725
739.9	-85.6726
740	-85.6726
740.1	-85.6727
740.2	-85.6727
740.3	-85.6728
740.4	-85.6728
740.5	-85.6729
740.6	-85.6729
740.7	-85.673
740.8	-85.673
740.9	-85.6731
741	-85.6731
741.1	-85.6732
741.2	-85.6732
741.3	-85.6733
741.4	-85.6733
741.5	-85.6734
741.6	-85.6734
741.7	-85.6735
741.8	-85.6735
741.9	-85.6736
742	-85.6736
742.1	-85.6737
742.2	-85.6737
742.3	-85.6738
742.4	-85.6738
742.5	-85.6739
742.6	-85.6739
742.7	-85.674
742.8	-85.674
742.9	-85.6741
743	-85.6741
743.1	-85.6742
743.2	-85.6742
743.3	-85.6743
743.4	-85.6743
743.5	-85.6744
743.6	-85.6744
743.7	-85.6745
743.8	-85.6745
743.9	-85.6746
744	-85.6746
744.1	-85.6747
744.2	-85.6747
744.3	-85.6747
744.4	-85.6748
744.5	-85.6748
744.6	-85.6749
744.7	-85.6749
744.8	-85.675
744.9	-85.675
745	-85.6751
745.1	-85.6751
745.2	-85.6752
745.3	-85.6752
745.4	-85.6753
745.5	-85.6753
745.6	-85.6754
745.7	-85.6754
745.8	-85.6755
745.9	-85.6755
746	-85.6756
746.1	-85.6756
746.2	-85.6757
746.3	-85.6757
746.4	-85.6758
746.5	-85.6758
746.6	-85.6759
746.7	-85.6759
746.8	-85.676
746.9	-85.676
747	-85.6761
747.1	-85.6761
747.2	-85.6762
747.3	-85.6762
747.4	-85.6763
747.5	-85.6763
747.6	-85.6764
747.7	-85.6764
747.8	-85.6765
747.9	-85.6765
748	-85.6766
748.1	-85.6766
748.2	-85.6767
748.3	-85.6767
748.4	-85.6768
748.5	-85.6768
748.6	-85.6768
748.7	-85.6769
748.8	-85.6769
748.9	-85.677
749	-85.677
749.1	-85.6771
749.2	-85.6771
749.3	-85.6772
749.4	-85.6772
749.5	-85.6773
749.6	-85.6773
749.7	-85.6774
749.8	-85.6774
749.9	-85.6775
750	-85.6775
750.1	-85.6776
750.2	-85.6776
750.3	-85.6777
750.4	-85.6777
750.5	-85.6778
750.6	-85.6778
750.7	-85.6779
750.8	-85.6779
750.9	-85.678
751	-85.678
751.1	-85.6781
751.2	-85.6781
751.3	-85.6781
751.4	-85.6782
751.5	-85.6782
751.6	-85.6783
751.7	-85.6783
751.8	-85.6784
751.9	-85.6784
752	-85.6785
752.1	-85.6785
752.2	-85.6786
752.3	-85.6786
752.4	-85.6787
752.5	-85.6787
752.6	-85.6788
752.7	-85.6788
752.8	-85.6789
752.9	-85.6789
753	-85.679
753.1	-85.679
753.2	-85.6791
753.3	-85.6791
753.4	-85.6791
753.5	-85.6792
753.6	-85.6792
753.7	-85.6793
753.8	-85.6793
753.9	-85.6794
754	-85.6794
754.1	-85.6795
754.2	-85.6795
754.3	-85.6796
754.4	-85.6796
754.5	-85.6797
754.6	-85.6797
754.7	-85.6798
754.8	-85.6798
754.9	-85.6799
755	-85.6799
755.1	-85.6799
755.2	-85.68
755.3	-85.68
755.4	-85.6801
755.5	-85.6801
755.6	-85.6802
755.7	-85.6802
755.8	-85.6803
755.9	-85.6803
756	-85.6804
756.1	-85.6804
756.2	-85.6805
756.3	-85.6805
756.4	-85.6806
756.5	-85.6806
756.6	-85.6807
756.7	-85.6807
756.8	-85.6807
756.9	-85.6808
757	-85.6808
757.1	-85.6809
757.2	-85.6809
757.3	-85.681
757.4	-85.681
757.5	-85.6811
757.6	-85.6811
757.7	-85.6812
757.8	-85.6812
757.9	-85.6813
758	-85.6813
758.1	-85.6814
758.2	-85.6814
758.3	-85.6814
758.4	-85.6815
758.5	-85.6815
758.6	-85.6816
758.7	-85.6816
758.8	-85.6817
758.9	-85.6817
759	-85.6818
759.1	-85.6818
759.2	-85.6819
759.3	-85.6819
759.4	-85.682
759.5	-85.682
759.6	-85.682
759.7	-85.6821
759.8	-85.6821
759.9	-85.6822
760	-85.6822
760.1	-85.6823
760.2	-85.6823
760.3	-85.6824
760.4	-85.6824
760.5	-85.6825
760.6	-85.6825
760.7	-85.6825
760.8	-85.6826
760.9	-85.6826
761	-85.6827
761.1	-85.6827
761.2	-85.6828
761.3	-85.6828
761.4	-85.6829
761.5	-85.6829
761.6	-85.683
761.7	-85.683
761.8	-85.6831
761.9	-85.6831
762	-85.6831
762.1	-85.6832
762.2	-85.6832
762.3	-85.6833
762.4	-85.6833
762.5	-85.6834
762.6	-85.6834
762.7	-85.6835
762.8	-85.6835
762.9	-85.6836
763	-85.6836
763.1	-85.6836
763.2	-85.6837
763.3	-85.6837
763.4	-85.6838
763.5	-85.6838
763.6	-85.6839
763.7	-85.6839
763.8	-85.684
763.9	-85.684
764	-85.6841
764.1	-85.6841
764.2	-85.6841
764.3	-85.6842
764.4	-85.6842
764.5	-85.6843
764.6	-85.6843
764.7	-85.6844
764.8	-85.6844
764.9	-85.6845
765	-85.6845
765.1	-85.6845
765.2	-85.6846
765.3	-85.6846
765.4	-85.6847
765.5	-85.6847
765.6	-85.6848
765.7	-85.6848
765.8	-85.6849
765.9	-85.6849
766	-85.685
766.1	-85.685
766.2	-85.685
766.3	-85.6851
766.4	-85.6851
766.5	-85.6852
766.6	-85.6852
766.7	-85.6853
766.8	-85.6853
766.9	-85.6854
767	-85.6854
767.1	-85.6854
767.2	-85.6855
767.3	-85.6855
767.4	-85.6856
767.5	-85.6856
767.6	-85.6857
767.7	-85.6857
767.8	-85.6858
767.9	-85.6858
768	-85.6858
768.1	-85.6859
768.2	-85.6859
768.3	-85.686
768.4	-85.686
768.5	-85.6861
768.6	-85.6861
768.7	-85.6862
768.8	-85.6862
768.9	-85.6862
769	-85.6863
769.1	-85.6863
769.2	-85.6864
769.3	-85.6864
769.4	-85.6865
769.5	-85.6865
769.6	-85.6866
769.7	-85.6866
769.8	-85.6866
769.9	-85.6867
770	-85.6867
770.1	-85.6868
770.2	-85.6868
770.3	-85.6869
770.4	-85.6869
770.5	-85.6869
770.6	-85.687
770.7	-85.687
770.8	-85.6871
770.9	-85.6871
771	-85.6872
771.1	-85.6872
771.2	-85.6873
771.3	-85.6873
771.4	-85.6873
771.5	-85.6874
771.6	-85.6874
771.7	-85.6875
771.8	-85.6875
771.9	-85.6876
772	-85.6876
772.1	-85.6876
772.2	-85.6877
772.3	-85.6877
772.4	-85.6878
772.5	-85.6878
772.6	-85.6879
772.7	-85.6879
772.8	-85.688
772.9	-85.688
773	-85.688
773.1	-85.6881
773.2	-85.6881
773.3	-85.6882
773.4	-85.6882
773.5	-85.6883
773.6	-85.6883
773.7	-85.6883
773.8	-85.6884
773.9	-85.6884
774	-85.6885
774.1	-85.6885
774.2	-85.6886
774.3	-85.6886
774.4	-85.6886
774.5	-85.6887
774.6	-85.6887
774.7	-85.6888
774.8	-85.6888
774.9	-85.6889
775	-85.6889
775.1	-85.689
775.2	-85.689
775.3	-85.689
775.4	-85.6891
775.5	-85.6891
775.6	-85.6892
775.7	-85.6892
775.8	-85.6893
775.9	-85.6893
776	-85.6893
776.1	-85.6894
776.2	-85.6894
776.3	-85.6895
776.4	-85.6895
776.5	-85.6896
776.6	-85.6896
776.7	-85.6896
776.8	-85.6897
776.9	-85.6897
777	-85.6898
777.1	-85.6898
777.2	-85.6899
777.3	-85.6899
777.4	-85.6899
777.5	-85.69
777.6	-85.69
777.7	-85.6901
777.8	-85.6901
777.9	-85.6901
778	-85.6902
778.1	-85.6902
778.2	-85.6903
778.3	-85.6903
778.4	-85.6904
778.5	-85.6904
778.6	-85.6904
778.7	-85.6905
778.8	-85.6905
778.9	-85.6906
779	-85.6906
779.1	-85.6907
779.2	-85.6907
779.3	-85.6907
779.4	-85.6908
779.5	-85.6908
779.6	-85.6909
779.7	-85.6909
779.8	-85.691
779.9	-85.691
780	-85.691
780.1	-85.6911
780.2	-85.6911
780.3	-85.6912
780.4	-85.6912
780.5	-85.6912
780.6	-85.6913
780.7	-85.6913
780.8	-85.6914
780.9	-85.6914
781	-85.6915
781.1	-85.6915
781.2	-85.6915
781.3	-85.6916
781.4	-85.6916
781.5	-85.6917
781.6	-85.6917
781.7	-85.6918
781.8	-85.6918
781.9	-85.6918
782	-85.6919
782.1	-85.6919
782.2	-85.692
782.3	-85.692
782.4	-85.692
782.5	-85.6921
782.6	-85.6921
782.7	-85.6922
782.8	-85.6922
782.9	-85.6923
783	-85.6923
783.1	-85.6923
783.2	-85.6924
783.3	-85.6924
783.4	-85.6925
783.5	-85.6925
783.6	-85.6925
783.7	-85.6926
783.8	-85.6926
783.9	-85.6927
784	-85.6927
784.1	-85.6928
784.2	-85.6928
784.3	-85.6928
784.4	-85.6929
784.5	-85.6929
784.6	-85.693
784.7	-85.693
784.8	-85.693
784.9	-85.6931
785	-85.6931
785.1	-85.6932
785.2	-85.6932
785.3	-85.6932
785.4	-85.6933
785.5	-85.6933
785.6	-85.6934
785.7	-85.6934
785.8	-85.6935
785.9	-85.6935
786	-85.6935
786.1	-85.6936
786.2	-85.6936
786.3	-85.6937
786.4	-85.6937
786.5	-85.6937
786.6	-85.6938
786.7	-85.6938
786.8	-85.6939
786.9	-85.6939
787	-85.6939
787.1	-85.694
787.2	-85.694
787.3	-85.6941
787.4	-85.6941
787.5	-85.6941
787.6	-85.6942
787.7	-85.6942
787.8	-85.6943
787.9	-85.6943
788	-85.6944
788.1	-85.6944
788.2	-85.6944
788.3	-85.6945
788.4	-85.6945
788.5	-85.6946
788.6	-85.6946
788.7	-85.6946
788.8	-85.6947
788.9	-85.6947
789	-85.6948
789.1	-85.6948
789.2	-85.6948
789.3	-85.6949
789.4	-85.6949
789.5	-85.695
789.6	-85.695
789.7	-85.695
789.8	-85.6951
789.9	-85.6951
790	-85.6952
790.1	-85.6952
790.2	-85.6952
790.3	-85.6953
790.4	-85.6953
790.5	-85.6954
790.6	-85.6954
790.7	-85.6954
790.8	-85.6955
790.9	-85.6955
791	-85.6956
791.1	-85.6956
791.2	-85.6956
791.3	-85.6957
791.4	-85.6957
791.5	-85.6958
791.6	-85.6958
791.7	-85.6958
791.8	-85.6959
791.9	-85.6959
792	-85.696
792.1	-85.696
792.2	-85.696
792.3	-85.6961
792.4	-85.6961
792.5	-85.6962
792.6	-85.6962
792.7	-85.6962
792.8	-85.6963
792.9	-85.6963
793	-85.6964
793.1	-85.6964
793.2	-85.6964
793.3	-85.6965
793.4	-85.6965
793.5	-85.6966
793.6	-85.6966
793.7	-85.6966
793.8	-85.6967
793.9	-85.6967
794	-85.6968
794.1	-85.6968
794.2	-85.6968
794.3	-85.6969
794.4	-85.6969
794.5	-85.697
794.6	-85.697
794.7	-85.697
794.8	-85.6971
794.9	-85.6971
795	-85.6972
795.1	-85.6972
795.2	-85.6972
795.3	-85.6973
795.4	-85.6973
795.5	-85.6974
795.6	-85.6974
795.7	-85.6974
795.8	-85.6975
795.9	-85.6975
796	-85.6976
796.1	-85.6976
796.2	-85.6976
796.3	-85.6977
796.4	-85.6977
796.5	-85.6977
796.6	-85.6978
796.7	-85.6978
796.8	-85.6979
796.9	-85.6979
797	-85.6979
797.1	-85.698
797.2	-85.698
797.3	-85.6981
797.4	-85.6981
797.5	-85.6981
797.6	-85.6982
797.7	-85.6982
797.8	-85.6983
797.9	-85.6983
798	-85.6983
798.1	-85.6984
798.2	-85.6984
798.3	-85.6985
798.4	-85.6985
798.5	-85.6985
798.6	-85.6986
798.7	-85.6986
798.8	-85.6986
798.9	-85.6987
799	-85.6987
799.1	-85.6988
799.2	-85.6988
799.3	-85.6988
799.4	-85.6989
799.5	-85.6989
799.6	-85.699
799.7	-85.699
799.8	-85.699
799.9	-85.6991
800	-85.6991
800.1	-85.6992
800.2	-85.6992
800.3	-85.6992
800.4	-85.6993
800.5	-85.6993
800.6	-85.6993
800.7	-85.6994
800.8	-85.6994
800.9	-85.6995
801	-85.6995
801.1	-85.6995
801.2	-85.6996
801.3	-85.6996
801.4	-85.6997
801.5	-85.6997
801.6	-85.6997
801.7	-85.6998
801.8	-85.6998
801.9	-85.6998
802	-85.6999
802.1	-85.6999
802.2	-85.7
802.3	-85.7
802.4	-85.7
802.5	-85.7001
802.6	-85.7001
802.7	-85.7001
802.8	-85.7002
802.9	-85.7002
803	-85.7003
803.1	-85.7003
803.2	-85.7003
803.3	-85.7004
803.4	-85.7004
803.5	-85.7005
803.6	-85.7005
803.7	-85.7005
803.8	-85.7006
803.9	-85.7006
804	-85.7006
804.1	-85.7007
804.2	-85.7007
804.3	-85.7008
804.4	-85.7008
804.5	-85.7008
804.6	-85.7009
804.7	-85.7009
804.8	-85.7009
804.9	-85.701
805	-85.701
805.1	-85.7011
805.2	-85.7011
805.3	-85.7011
805.4	-85.7012
805.5	-85.7012
805.6	-85.7012
805.7	-85.7013
805.8	-85.7013
805.9	-85.7014
806	-85.7014
806.1	-85.7014
806.2	-85.7015
806.3	-85.7015
806.4	-85.7015
806.5	-85.7016
806.6	-85.7016
806.7	-85.7017
806.8	-85.7017
806.9	-85.7017
807	-85.7018
807.1	-85.7018
807.2	-85.7018
807.3	-85.7019
807.4	-85.7019
807.5	-85.702
807.6	-85.702
807.7	-85.702
807.8	-85.7021
807.9	-85.7021
808	-85.7021
808.1	-85.7022
808.2	-85.7022
808.3	-85.7023
808.4	-85.7023
808.5	-85.7023
808.6	-85.7024
808.7	-85.7024
808.8	-85.7024
808.9	-85.7025
809	-85.7025
809.1	-85.7026
809.2	-85.7026
809.3	-85.7026
809.4	-85.7027
809.5	-85.7027
809.6	-85.7027
809.7	-85.7028
809.8	-85.7028
809.9	-85.7029
810	-85.7029
810.1	-85.7029
810.2	-85.703
810.3	-85.703
810.4	-85.703
810.5	-85.7031
810.6	-85.7031
810.7	-85.7032
810.8	-85.7032
810.9	-85.7032
811	-85.7033
811.1	-85.7033
811.2	-85.7033
811.3	-85.7034
811.4	-85.7034
811.5	-85.7034
811.6	-85.7035
811.7	-85.7035
811.8	-85.7036
811.9	-85.7036
812	-85.7036
812.1	-85.7037
812.2	-85.7037
812.3	-85.7037
812.4	-85.7038
812.5	-85.7038
812.6	-85.7038
812.7	-85.7039
812.8	-85.7039
812.9	-85.704
813	-85.704
813.1	-85.704
813.2	-85.7041
813.3	-85.7041
813.4	-85.7041
813.5	-85.7042
813.6	-85.7042
813.7	-85.7042
813.8	-85.7043
813.9	-85.7043
814	-85.7044
814.1	-85.7044
814.2	-85.7044
814.3	-85.7045
814.4	-85.7045
814.5	-85.7045
814.6	-85.7046
814.7	-85.7046
814.8	-85.7046
814.9	-85.7047
815	-85.7047
815.1	-85.7048
815.2	-85.7048
815.3	-85.7048
815.4	-85.7049
815.5	-85.7049
815.6	-85.7049
815.7	-85.705
815.8	-85.705
815.9	-85.705
816	-85.7051
816.1	-85.7051
816.2	-85.7052
816.3	-85.7052
816.4	-85.7052
816.5	-85.7053
816.6	-85.7053
816.7	-85.7053
816.8	-85.7054
816.9	-85.7054
817	-85.7054
817.1	-85.7055
817.2	-85.7055
817.3	-85.7056
817.4	-85.7056
817.5	-85.7056
817.6	-85.7057
817.7	-85.7057
817.8	-85.7057
817.9	-85.7058
818	-85.7058
818.1	-85.7058
818.2	-85.7059
818.3	-85.7059
818.4	-85.7059
818.5	-85.706
818.6	-85.706
818.7	-85.7061
818.8	-85.7061
818.9	-85.7061
819	-85.7062
819.1	-85.7062
819.2	-85.7062
819.3	-85.7063
819.4	-85.7063
819.5	-85.7063
819.6	-85.7064
819.7	-85.7064
819.8	-85.7064
819.9	-85.7065
820	-85.7065
820.1	-85.7065
820.2	-85.7066
820.3	-85.7066
820.4	-85.7067
820.5	-85.7067
820.6	-85.7067
820.7	-85.7068
820.8	-85.7068
820.9	-85.7068
821	-85.7069
821.1	-85.7069
821.2	-85.7069
821.3	-85.707
821.4	-85.707
821.5	-85.707
821.6	-85.7071
821.7	-85.7071
821.8	-85.7071
821.9	-85.7072
822	-85.7072
822.1	-85.7073
822.2	-85.7073
822.3	-85.7073
822.4	-85.7074
822.5	-85.7074
822.6	-85.7074
822.7	-85.7075
822.8	-85.7075
822.9	-85.7075
823	-85.7076
823.1	-85.7076
823.2	-85.7076
823.3	-85.7077
823.4	-85.7077
823.5	-85.7077
823.6	-85.7078
823.7	-85.7078
823.8	-85.7078
823.9	-85.7079
824	-85.7079
824.1	-85.708
824.2	-85.708
824.3	-85.708
824.4	-85.7081
824.5	-85.7081
824.6	-85.7081
824.7	-85.7082
824.8	-85.7082
824.9	-85.7082
825	-85.7083
825.1	-85.7083
825.2	-85.7083
825.3	-85.7084
825.4	-85.7084
825.5	-85.7084
825.6	-85.7085
825.7	-85.7085
825.8	-85.7085
825.9	-85.7086
826	-85.7086
826.1	-85.7086
826.2	-85.7087
826.3	-85.7087
826.4	-85.7087
826.5	-85.7088
826.6	-85.7088
826.7	-85.7089
826.8	-85.7089
826.9	-85.7089
827	-85.709
827.1	-85.709
827.2	-85.709
827.3	-85.7091
827.4	-85.7091
827.5	-85.7091
827.6	-85.7092
827.7	-85.7092
827.8	-85.7092
827.9	-85.7093
828	-85.7093
828.1	-85.7093
828.2	-85.7094
828.3	-85.7094
828.4	-85.7094
828.5	-85.7095
828.6	-85.7095
828.7	-85.7095
828.8	-85.7096
828.9	-85.7096
829	-85.7096
829.1	-85.7097
829.2	-85.7097
829.3	-85.7097
829.4	-85.7098
829.5	-85.7098
829.6	-85.7098
829.7	-85.7099
829.8	-85.7099
829.9	-85.7099
830	-85.71
830.1	-85.71
830.2	-85.71
830.3	-85.7101
830.4	-85.7101
830.5	-85.7101
830.6	-85.7102
830.7	-85.7102
830.8	-85.7102
830.9	-85.7103
831	-85.7103
831.1	-85.7104
831.2	-85.7104
831.3	-85.7104
831.4	-85.7105
831.5	-85.7105
831.6	-85.7105
831.7	-85.7106
831.8	-85.7106
831.9	-85.7106
832	-85.7107
832.1	-85.7107
832.2	-85.7107
832.3	-85.7108
832.4	-85.7108
832.5	-85.7108
832.6	-85.7109
832.7	-85.7109
832.8	-85.7109
832.9	-85.711
833	-85.711
833.1	-85.711
833.2	-85.7111
833.3	-85.7111
833.4	-85.7111
833.5	-85.7112
833.6	-85.7112
833.7	-85.7112
833.8	-85.7113
833.9	-85.7113
834	-85.7113
834.1	-85.7114
834.2	-85.7114
834.3	-85.7114
834.4	-85.7115
834.5	-85.7115
834.6	-85.7115
834.7	-85.7116
834.8	-85.7116
834.9	-85.7116
835	-85.7117
835.1	-85.7117
835.2	-85.7117
835.3	-85.7118
835.4	-85.7118
835.5	-85.7118
835.6	-85.7119
835.7	-85.7119
835.8	-85.7119
835.9	-85.712
836	-85.712
836.1	-85.712
836.2	-85.7121
836.3	-85.7121
836.4	-85.7121
836.5	-85.7122
836.6	-85.7122
836.7	-85.7122
836.8	-85.7123
836.9	-85.7123
837	-85.7123
837.1	-85.7124
837.2	-85.7124
837.3	-85.7124
837.4	-85.7124
837.5	-85.7125
837.6	-85.7125
837.7	-85.7125
837.8	-85.7126
837.9	-85.7126
838	-85.7126
838.1	-85.7127
838.2	-85.7127
838.3	-85.7127
838.4	-85.7128
838.5	-85.7128
838.6	-85.7128
838.7	-85.7129
838.8	-85.7129
838.9	-85.7129
839	-85.713
839.1	-85.713
839.2	-85.713
839.3	-85.7131
839.4	-85.7131
839.5	-85.7131
839.6	-85.7132
839.7	-85.7132
839.8	-85.7132
839.9	-85.7133
840	-85.7133
840.1	-85.7133
840.2	-85.7134
840.3	-85.7134
840.4	-85.7134
840.5	-85.7135
840.6	-85.7135
840.7	-85.7135
840.8	-85.7136
840.9	-85.7136
841	-85.7136
841.1	-85.7137
841.2	-85.7137
841.3	-85.7137
841.4	-85.7138
841.5	-85.7138
841.6	-85.7138
841.7	-85.7138
841.8	-85.7139
841.9	-85.7139
842	-85.7139
842.1	-85.714
842.2	-85.714
842.3	-85.714
842.4	-85.7141
842.5	-85.7141
842.6	-85.7141
842.7	-85.7142
842.8	-85.7142
842.9	-85.7142
843	-85.7143
843.1	-85.7143
843.2	-85.7143
843.3	-85.7144
843.4	-85.7144
843.5	-85.7144
843.6	-85.7145
843.7	-85.7145
843.8	-85.7145
843.9	-85.7146
844	-85.7146
844.1	-85.7146
844.2	-85.7147
844.3	-85.7147
844.4	-85.7147
844.5	-85.7147
844.6	-85.7148
844.7	-85.7148
844.8	-85.7148
844.9	-85.7149
845	-85.7149
845.1	-85.7149
845.2	-85.715
845.3	-85.715
845.4	-85.715
845.5	-85.7151
845.6	-85.7151
845.7	-85.7151
845.8	-85.7152
845.9	-85.7152
846	-85.7152
846.1	-85.7153
846.2	-85.7153
846.3	-85.7153
846.4	-85.7153
846.5	-85.7154
846.6	-85.7154
846.7	-85.7154
846.8	-85.7155
846.9	-85.7155
847	-85.7155
847.1	-85.7156
847.2	-85.7156
847.3	-85.7156
847.4	-85.7157
847.5	-85.7157
847.6	-85.7157
847.7	-85.7158
847.8	-85.7158
847.9	-85.7158
848	-85.7159
848.1	-85.7159
848.2	-85.7159
848.3	-85.7159
848.4	-85.716
848.5	-85.716
848.6	-85.716
848.7	-85.7161
848.8	-85.7161
848.9	-85.7161
849	-85.7162
849.1	-85.7162
849.2	-85.7162
849.3	-85.7163
849.4	-85.7163
849.5	-85.7163
849.6	-85.7164
849.7	-85.7164
849.8	-85.7164
849.9	-85.7164
850	-85.7165
850.1	-85.7165
850.2	-85.7165
850.3	-85.7166
850.4	-85.7166
850.5	-85.7166
850.6	-85.7167
850.7	-85.7167
850.8	-85.7167
850.9	-85.7168
851	-85.7168
851.1	-85.7168
851.2	-85.7168
851.3	-85.7169
851.4	-85.7169
851.5	-85.7169
851.6	-85.717
851.7	-85.717
851.8	-85.717
851.9	-85.7171
852	-85.7171
852.1	-85.7171
852.2	-85.7172
852.3	-85.7172
852.4	-85.7172
852.5	-85.7173
852.6	-85.7173
852.7	-85.7173
852.8	-85.7173
852.9	-85.7174
853	-85.7174
853.1	-85.7174
853.2	-85.7175
853.3	-85.7175
853.4	-85.7175
853.5	-85.7176
853.6	-85.7176
853.7	-85.7176
853.8	-85.7176
853.9	-85.7177
854	-85.7177
854.1	-85.7177
854.2	-85.7178
854.3	-85.7178
854.4	-85.7178
854.5	-85.7179
854.6	-85.7179
854.7	-85.7179
854.8	-85.718
854.9	-85.718
855	-85.718
855.1	-85.718
855.2	-85.7181
855.3	-85.7181
855.4	-85.7181
855.5	-85.7182
855.6	-85.7182
855.7	-85.7182
855.8	-85.7183
855.9	-85.7183
856	-85.7183
856.1	-85.7184
856.2	-85.7184
856.3	-85.7184
856.4	-85.7184
856.5	-85.7185
856.6	-85.7185
856.7	-85.7185
856.8	-85.7186
856.9	-85.7186
857	-85.7186
857.1	-85.7187
857.2	-85.7187
857.3	-85.7187
857.4	-85.7187
857.5	-85.7188
857.6	-85.7188
857.7	-85.7188
857.8	-85.7189
857.9	-85.7189
858	-85.7189
858.1	-85.719
858.2	-85.719
858.3	-85.719
858.4	-85.719
858.5	-85.7191
858.6	-85.7191
858.7	-85.7191
858.8	-85.7192
858.9	-85.7192
859	-85.7192
859.1	-85.7193
859.2	-85.7193
859.3	-85.7193
859.4	-85.7193
859.5	-85.7194
859.6	-85.7194
859.7	-85.7194
859.8	-85.7195
859.9	-85.7195
860	-85.7195
860.1	-85.7196
860.2	-85.7196
860.3	-85.7196
860.4	-85.7196
860.5	-85.7197
860.6	-85.7197
860.7	-85.7197
860.8	-85.7198
860.9	-85.7198
861	-85.7198
861.1	-85.7198
861.2	-85.7199
861.3	-85.7199
861.4	-85.7199
861.5	-85.72
861.6	-85.72
861.7	-85.72
861.8	-85.7201
861.9	-85.7201
862	-85.7201
862.1	-85.7201
862.2	-85.7202
862.3	-85.7202
862.4	-85.7202
862.5	-85.7203
862.6	-85.7203
862.7	-85.7203
862.8	-85.7204
862.9	-85.7204
863	-85.7204
863.1	-85.7204
863.2	-85.7205
863.3	-85.7205
863.4	-85.7205
863.5	-85.7206
863.6	-85.7206
863.7	-85.7206
863.8	-85.7206
863.9	-85.7207
864	-85.7207
864.1	-85.7207
864.2	-85.7208
864.3	-85.7208
864.4	-85.7208
864.5	-85.7209
864.6	-85.7209
864.7	-85.7209
864.8	-85.7209
864.9	-85.721
865	-85.721
865.1	-85.721
865.2	-85.7211
865.3	-85.7211
865.4	-85.7211
865.5	-85.7211
865.6	-85.7212
865.7	-85.7212
865.8	-85.7212
865.9	-85.7213
866	-85.7213
866.1	-85.7213
866.2	-85.7213
866.3	-85.7214
866.4	-85.7214
866.5	-85.7214
866.6	-85.7215
866.7	-85.7215
866.8	-85.7215
866.9	-85.7215
867	-85.7216
867.1	-85.7216
867.2	-85.7216
867.3	-85.7217
867.4	-85.7217
867.5	-85.7217
867.6	-85.7217
867.7	-85.7218
867.8	-85.7218
867.9	-85.7218
868	-85.7219
868.1	-85.7219
868.2	-85.7219
868.3	-85.722
868.4	-85.722
868.5	-85.722
868.6	-85.722
868.7	-85.7221
868.8	-85.7221
868.9	-85.7221
869	-85.7222
869.1	-85.7222
869.2	-85.7222
869.3	-85.7222
869.4	-85.7223
869.5	-85.7223
869.6	-85.7223
869.7	-85.7224
869.8	-85.7224
869.9	-85.7224
870	-85.7224
870.1	-85.7225
870.2	-85.7225
870.3	-85.7225
870.4	-85.7226
870.5	-85.7226
870.6	-85.7226
870.7	-85.7226
870.8	-85.7227
870.9	-85.7227
871	-85.7227
871.1	-85.7228
871.2	-85.7228
871.3	-85.7228
871.4	-85.7228
871.5	-85.7229
871.6	-85.7229
871.7	-85.7229
871.8	-85.723
871.9	-85.723
872	-85.723
872.1	-85.723
872.2	-85.7231
872.3	-85.7231
872.4	-85.7231
872.5	-85.7231
872.6	-85.7232
872.7	-85.7232
872.8	-85.7232
872.9	-85.7233
873	-85.7233
873.1	-85.7233
873.2	-85.7233
873.3	-85.7234
873.4	-85.7234
873.5	-85.7234
873.6	-85.7235
873.7	-85.7235
873.8	-85.7235
873.9	-85.7235
874	-85.7236
874.1	-85.7236
874.2	-85.7236
874.3	-85.7237
874.4	-85.7237
874.5	-85.7237
874.6	-85.7237
874.7	-85.7238
874.8	-85.7238
874.9	-85.7238
875	-85.7239
875.1	-85.7239
875.2	-85.7239
875.3	-85.7239
875.4	-85.724
875.5	-85.724
875.6	-85.724
875.7	-85.724
875.8	-85.7241
875.9	-85.7241
876	-85.7241
876.1	-85.7242
876.2	-85.7242
876.3	-85.7242
876.4	-85.7242
876.5	-85.7243
876.6	-85.7243
876.7	-85.7243
876.8	-85.7244
876.9	-85.7244
877	-85.7244
877.1	-85.7244
877.2	-85.7245
877.3	-85.7245
877.4	-85.7245
877.5	-85.7245
877.6	-85.7246
877.7	-85.7246
877.8	-85.7246
877.9	-85.7247
878	-85.7247
878.1	-85.7247
878.2	-85.7247
878.3	-85.7248
878.4	-85.7248
878.5	-85.7248
878.6	-85.7248
878.7	-85.7249
878.8	-85.7249
878.9	-85.7249
879	-85.725
879.1	-85.725
879.2	-85.725
879.3	-85.725
879.4	-85.7251
879.5	-85.7251
879.6	-85.7251
879.7	-85.7251
879.8	-85.7252
879.9	-85.7252
880	-85.7252
880.1	-85.7253
880.2	-85.7253
880.3	-85.7253
880.4	-85.7253
880.5	-85.7254
880.6	-85.7254
880.7	-85.7254
880.8	-85.7255
880.9	-85.7255
881	-85.7255
881.1	-85.7255
881.2	-85.7256
881.3	-85.7256
881.4	-85.7256
881.5	-85.7256
881.6	-85.7257
881.7	-85.7257
881.8	-85.7257
881.9	-85.7257
882	-85.7258
882.1	-85.7258
882.2	-85.7258
882.3	-85.7259
882.4	-85.7259
882.5	-85.7259
882.6	-85.7259
882.7	-85.726
882.8	-85.726
882.9	-85.726
883	-85.726
883.1	-85.7261
883.2	-85.7261
883.3	-85.7261
883.4	-85.7262
883.5	-85.7262
883.6	-85.7262
883.7	-85.7262
883.8	-85.7263
883.9	-85.7263
884	-85.7263
884.1	-85.7263
884.2	-85.7264
884.3	-85.7264
884.4	-85.7264
884.5	-85.7265
884.6	-85.7265
884.7	-85.7265
884.8	-85.7265
884.9	-85.7266
885	-85.7266
885.1	-85.7266
885.2	-85.7266
885.3	-85.7267
885.4	-85.7267
885.5	-85.7267
885.6	-85.7267
885.7	-85.7268
885.8	-85.7268
885.9	-85.7268
886	-85.7269
886.1	-85.7269
886.2	-85.7269
886.3	-85.7269
886.4	-85.727
886.5	-85.727
886.6	-85.727
886.7	-85.727
886.8	-85.7271
886.9	-85.7271
887	-85.7271
887.1	-85.7271
887.2	-85.7272
887.3	-85.7272
887.4	-85.7272
887.5	-85.7272
887.6	-85.7273
887.7	-85.7273
887.8	-85.7273
887.9	-85.7274
888	-85.7274
888.1	-85.7274
888.2	-85.7274
888.3	-85.7275
888.4	-85.7275
888.5	-85.7275
888.6	-85.7275
888.7	-85.7276
888.8	-85.7276
888.9	-85.7276
889	-85.7276
889.1	-85.7277
889.2	-85.7277
889.3	-85.7277
889.4	-85.7278
889.5	-85.7278
889.6	-85.7278
889.7	-85.7278
889.8	-85.7279
889.9	-85.7279
890	-85.7279
890.1	-85.7279
890.2	-85.728
890.3	-85.728
890.4	-85.728
890.5	-85.728
890.6	-85.7281
890.7	-85.7281
890.8	-85.7281
890.9	-85.7281
891	-85.7282
891.1	-85.7282
891.2	-85.7282
891.3	-85.7282
891.4	-85.7283
891.5	-85.7283
891.6	-85.7283
891.7	-85.7284
891.8	-85.7284
891.9	-85.7284
892	-85.7284
892.1	-85.7285
892.2	-85.7285
892.3	-85.7285
892.4	-85.7285
892.5	-85.7286
892.6	-85.7286
892.7	-85.7286
892.8	-85.7286
892.9	-85.7287
893	-85.7287
893.1	-85.7287
893.2	-85.7287
893.3	-85.7288
893.4	-85.7288
893.5	-85.7288
893.6	-85.7288
893.7	-85.7289
893.8	-85.7289
893.9	-85.7289
894	-85.7289
894.1	-85.729
894.2	-85.729
894.3	-85.729
894.4	-85.729
894.5	-85.7291
894.6	-85.7291
894.7	-85.7291
894.8	-85.7292
894.9	-85.7292
895	-85.7292
895.1	-85.7292
895.2	-85.7293
895.3	-85.7293
895.4	-85.7293
895.5	-85.7293
895.6	-85.7294
895.7	-85.7294
895.8	-85.7294
895.9	-85.7294
896	-85.7295
896.1	-85.7295
896.2	-85.7295
896.3	-85.7295
896.4	-85.7296
896.5	-85.7296
896.6	-85.7296
896.7	-85.7296
896.8	-85.7297
896.9	-85.7297
897	-85.7297
897.1	-85.7297
897.2	-85.7298
897.3	-85.7298
897.4	-85.7298
897.5	-85.7298
897.6	-85.7299
897.7	-85.7299
897.8	-85.7299
897.9	-85.7299
898	-85.73
898.1	-85.73
898.2	-85.73
898.3	-85.73
898.4	-85.7301
898.5	-85.7301
898.6	-85.7301
898.7	-85.7301
898.8	-85.7302
898.9	-85.7302
899	-85.7302
899.1	-85.7302
899.2	-85.7303
899.3	-85.7303
899.4	-85.7303
899.5	-85.7303
899.6	-85.7304
899.7	-85.7304
899.8	-85.7304
899.9	-85.7304
900	-85.7305
900.1	-85.7305
900.2	-85.7305
900.3	-85.7305
900.4	-85.7306
900.5	-85.7306
900.6	-85.7306
900.7	-85.7306
900.8	-85.7307
900.9	-85.7307
901	-85.7307
901.1	-85.7307
901.2	-85.7308
901.3	-85.7308
901.4	-85.7308
901.5	-85.7308
901.6	-85.7309
901.7	-85.7309
901.8	-85.7309
901.9	-85.7309
902	-85.731
902.1	-85.731
902.2	-85.731
902.3	-85.731
902.4	-85.7311
902.5	-85.7311
902.6	-85.7311
902.7	-85.7311
902.8	-85.7312
902.9	-85.7312
903	-85.7312
903.1	-85.7312
903.2	-85.7313
903.3	-85.7313
903.4	-85.7313
903.5	-85.7313
903.6	-85.7314
903.7	-85.7314
903.8	-85.7314
903.9	-85.7314
904	-85.7315
904.1	-85.7315
904.2	-85.7315
904.3	-85.7315
904.4	-85.7316
904.5	-85.7316
904.6	-85.7316
904.7	-85.7316
904.8	-85.7317
904.9	-85.7317
905	-85.7317
905.1	-85.7317
905.2	-85.7318
905.3	-85.7318
905.4	-85.7318
905.5	-85.7318
905.6	-85.7319
905.7	-85.7319
905.8	-85.7319
905.9	-85.7319
906	-85.732
906.1	-85.732
906.2	-85.732
906.3	-85.732
906.4	-85.7321
906.5	-85.7321
906.6	-85.7321
906.7	-85.7321
906.8	-85.7322
906.9	-85.7322
907	-85.7322
907.1	-85.7322
907.2	-85.7322
907.3	-85.7323
907.4	-85.7323
907.5	-85.7323
907.6	-85.7323
907.7	-85.7324
907.8	-85.7324
907.9	-85.7324
908	-85.7324
908.1	-85.7325
908.2	-85.7325
908.3	-85.7325
908.4	-85.7325
908.5	-85.7326
908.6	-85.7326
908.7	-85.7326
908.8	-85.7326
908.9	-85.7327
909	-85.7327
909.1	-85.7327
909.2	-85.7327
909.3	-85.7328
909.4	-85.7328
909.5	-85.7328
909.6	-85.7328
909.7	-85.7329
909.8	-85.7329
909.9	-85.7329
910	-85.7329
910.1	-85.7329
910.2	-85.733
910.3	-85.733
910.4	-85.733
910.5	-85.733
910.6	-85.7331
910.7	-85.7331
910.8	-85.7331
910.9	-85.7331
911	-85.7332
911.1	-85.7332
911.2	-85.7332
911.3	-85.7332
911.4	-85.7333
911.5	-85.7333
911.6	-85.7333
911.7	-85.7333
911.8	-85.7334
911.9	-85.7334
912	-85.7334
912.1	-85.7334
912.2	-85.7335
912.3	-85.7335
912.4	-85.7335
912.5	-85.7335
912.6	-85.7335
912.7	-85.7336
912.8	-85.7336
912.9	-85.7336
913	-85.7336
913.1	-85.7337
913.2	-85.7337
913.3	-85.7337
913.4	-85.7337
913.5	-85.7338
913.6	-85.7338
913.7	-85.7338
913.8	-85.7338
913.9	-85.7339
914	-85.7339
914.1	-85.7339
914.2	-85.7339
914.3	-85.7339
914.4	-85.734
914.5	-85.734
914.6	-85.734
914.7	-85.734
914.8	-85.7341
914.9	-85.7341
915	-85.7341
915.1	-85.7341
915.2	-85.7342
915.3	-85.7342
915.4	-85.7342
915.5	-85.7342
915.6	-85.7343
915.7	-85.7343
915.8	-85.7343
915.9	-85.7343
916	-85.7343
916.1	-85.7344
916.2	-85.7344
916.3	-85.7344
916.4	-85.7344
916.5	-85.7345
916.6	-85.7345
916.7	-85.7345
916.8	-85.7345
916.9	-85.7346
917	-85.7346
917.1	-85.7346
917.2	-85.7346
917.3	-85.7347
917.4	-85.7347
917.5	-85.7347
917.6	-85.7347
917.7	-85.7347
917.8	-85.7348
917.9	-85.7348
918	-85.7348
918.1	-85.7348
918.2	-85.7349
918.3	-85.7349
918.4	-85.7349
918.5	-85.7349
918.6	-85.735
918.7	-85.735
918.8	-85.735
918.9	-85.735
919	-85.735
919.1	-85.7351
919.2	-85.7351
919.3	-85.7351
919.4	-85.7351
919.5	-85.7352
919.6	-85.7352
919.7	-85.7352
919.8	-85.7352
919.9	-85.7353
920	-85.7353
920.1	-85.7353
920.2	-85.7353
920.3	-85.7353
920.4	-85.7354
920.5	-85.7354
920.6	-85.7354
920.7	-85.7354
920.8	-85.7355
920.9	-85.7355
921	-85.7355
921.1	-85.7355
921.2	-85.7356
921.3	-85.7356
921.4	-85.7356
921.5	-85.7356
921.6	-85.7356
921.7	-85.7357
921.8	-85.7357
921.9	-85.7357
922	-85.7357
922.1	-85.7358
922.2	-85.7358
922.3	-85.7358
922.4	-85.7358
922.5	-85.7359
922.6	-85.7359
922.7	-85.7359
922.8	-85.7359
922.9	-85.7359
923	-85.736
923.1	-85.736
923.2	-85.736
923.3	-85.736
923.4	-85.7361
923.5	-85.7361
923.6	-85.7361
923.7	-85.7361
923.8	-85.7361
923.9	-85.7362
924	-85.7362
924.1	-85.7362
924.2	-85.7362
924.3	-85.7363
924.4	-85.7363
924.5	-85.7363
924.6	-85.7363
924.7	-85.7363
924.8	-85.7364
924.9	-85.7364
925	-85.7364
925.1	-85.7364
925.2	-85.7365
925.3	-85.7365
925.4	-85.7365
925.5	-85.7365
925.6	-85.7366
925.7	-85.7366
925.8	-85.7366
925.9	-85.7366
926	-85.7366
926.1	-85.7367
926.2	-85.7367
926.3	-85.7367
926.4	-85.7367
926.5	-85.7368
926.6	-85.7368
926.7	-85.7368
926.8	-85.7368
926.9	-85.7368
927	-85.7369
927.1	-85.7369
927.2	-85.7369
927.3	-85.7369
927.4	-85.737
927.5	-85.737
927.6	-85.737
927.7	-85.737
927.8	-85.737
927.9	-85.7371
928	-85.7371
928.1	-85.7371
928.2	-85.7371
928.3	-85.7372
928.4	-85.7372
928.5	-85.7372
928.6	-85.7372
928.7	-85.7372
928.8	-85.7373
928.9	-85.7373
929	-85.7373
929.1	-85.7373
929.2	-85.7374
929.3	-85.7374
929.4	-85.7374
929.5	-85.7374
929.6	-85.7374
929.7	-85.7375
929.8	-85.7375
929.9	-85.7375
930	-85.7375
930.1	-85.7376
930.2	-85.7376
930.3	-85.7376
930.4	-85.7376
930.5	-85.7376
930.6	-85.7377
930.7	-85.7377
930.8	-85.7377
930.9	-85.7377
931	-85.7378
931.1	-85.7378
931.2	-85.7378
931.3	-85.7378
931.4	-85.7378
931.5	-85.7379
931.6	-85.7379
931.7	-85.7379
931.8	-85.7379
931.9	-85.7379
932	-85.738
932.1	-85.738
932.2	-85.738
932.3	-85.738
932.4	-85.7381
932.5	-85.7381
932.6	-85.7381
932.7	-85.7381
932.8	-85.7381
932.9	-85.7382
933	-85.7382
933.1	-85.7382
933.2	-85.7382
933.3	-85.7383
933.4	-85.7383
933.5	-85.7383
933.6	-85.7383
933.7	-85.7383
933.8	-85.7384
933.9	-85.7384
934	-85.7384
934.1	-85.7384
934.2	-85.7384
934.3	-85.7385
934.4	-85.7385
934.5	-85.7385
934.6	-85.7385
934.7	-85.7386
934.8	-85.7386
934.9	-85.7386
935	-85.7386
935.1	-85.7386
935.2	-85.7387
935.3	-85.7387
935.4	-85.7387
935.5	-85.7387
935.6	-85.7388
935.7	-85.7388
935.8	-85.7388
935.9	-85.7388
936	-85.7388
936.1	-85.7389
936.2	-85.7389
936.3	-85.7389
936.4	-85.7389
936.5	-85.7389
936.6	-85.739
936.7	-85.739
936.8	-85.739
936.9	-85.739
937	-85.7391
937.1	-85.7391
937.2	-85.7391
937.3	-85.7391
937.4	-85.7391
937.5	-85.7392
937.6	-85.7392
937.7	-85.7392
937.8	-85.7392
937.9	-85.7392
938	-85.7393
938.1	-85.7393
938.2	-85.7393
938.3	-85.7393
938.4	-85.7394
938.5	-85.7394
938.6	-85.7394
938.7	-85.7394
938.8	-85.7394
938.9	-85.7395
939	-85.7395
939.1	-85.7395
939.2	-85.7395
939.3	-85.7395
939.4	-85.7396
939.5	-85.7396
939.6	-85.7396
939.7	-85.7396
939.8	-85.7396
939.9	-85.7397
940	-85.7397
940.1	-85.7397
940.2	-85.7397
940.3	-85.7398
940.4	-85.7398
940.5	-85.7398
940.6	-85.7398
940.7	-85.7398
940.8	-85.7399
940.9	-85.7399
941	-85.7399
941.1	-85.7399
941.2	-85.7399
941.3	-85.74
941.4	-85.74
941.5	-85.74
941.6	-85.74
941.7	-85.74
941.8	-85.7401
941.9	-85.7401
942	-85.7401
942.1	-85.7401
942.2	-85.7402
942.3	-85.7402
942.4	-85.7402
942.5	-85.7402
942.6	-85.7402
942.7	-85.7403
942.8	-85.7403
942.9	-85.7403
943	-85.7403
943.1	-85.7403
943.2	-85.7404
943.3	-85.7404
943.4	-85.7404
943.5	-85.7404
943.6	-85.7404
943.7	-85.7405
943.8	-85.7405
943.9	-85.7405
944	-85.7405
944.1	-85.7405
944.2	-85.7406
944.3	-85.7406
944.4	-85.7406
944.5	-85.7406
944.6	-85.7407
944.7	-85.7407
944.8	-85.7407
944.9	-85.7407
945	-85.7407
945.1	-85.7408
945.2	-85.7408
945.3	-85.7408
945.4	-85.7408
945.5	-85.7408
945.6	-85.7409
945.7	-85.7409
945.8	-85.7409
945.9	-85.7409
946	-85.7409
946.1	-85.741
946.2	-85.741
946.3	-85.741
946.4	-85.741
946.5	-85.741
946.6	-85.7411
946.7	-85.7411
946.8	-85.7411
946.9	-85.7411
947	-85.7411
947.1	-85.7412
947.2	-85.7412
947.3	-85.7412
947.4	-85.7412
947.5	-85.7412
947.6	-85.7413
947.7	-85.7413
947.8	-85.7413
947.9	-85.7413
948	-85.7414
948.1	-85.7414
948.2	-85.7414
948.3	-85.7414
948.4	-85.7414
948.5	-85.7415
948.6	-85.7415
948.7	-85.7415
948.8	-85.7415
948.9	-85.7415
949	-85.7416
949.1	-85.7416
949.2	-85.7416
949.3	-85.7416
949.4	-85.7416
949.5	-85.7417
949.6	-85.7417
949.7	-85.7417
949.8	-85.7417
949.9	-85.7417
950	-85.7418
950.1	-85.7418
950.2	-85.7418
950.3	-85.7418
950.4	-85.7418
950.5	-85.7419
950.6	-85.7419
950.7	-85.7419
950.8	-85.7419
950.9	-85.7419
951	-85.742
951.1	-85.742
951.2	-85.742
951.3	-85.742
951.4	-85.742
951.5	-85.7421
951.6	-85.7421
951.7	-85.7421
951.8	-85.7421
951.9	-85.7421
952	-85.7422
952.1	-85.7422
952.2	-85.7422
952.3	-85.7422
952.4	-85.7422
952.5	-85.7423
952.6	-85.7423
952.7	-85.7423
952.8	-85.7423
952.9	-85.7423
953	-85.7424
953.1	-85.7424
953.2	-85.7424
953.3	-85.7424
953.4	-85.7424
953.5	-85.7425
953.6	-85.7425
953.7	-85.7425
953.8	-85.7425
953.9	-85.7425
954	-85.7426
954.1	-85.7426
954.2	-85.7426
954.3	-85.7426
954.4	-85.7426
954.5	-85.7427
954.6	-85.7427
954.7	-85.7427
954.8	-85.7427
954.9	-85.7427
955	-85.7428
955.1	-85.7428
955.2	-85.7428
955.3	-85.7428
955.4	-85.7428
955.5	-85.7429
955.6	-85.7429
955.7	-85.7429
955.8	-85.7429
955.9	-85.7429
956	-85.743
956.1	-85.743
956.2	-85.743
956.3	-85.743
956.4	-85.743
956.5	-85.7431
956.6	-85.7431
956.7	-85.7431
956.8	-85.7431
956.9	-85.7431
957	-85.7432
957.1	-85.7432
957.2	-85.7432
957.3	-85.7432
957.4	-85.7432
957.5	-85.7432
957.6	-85.7433
957.7	-85.7433
957.8	-85.7433
957.9	-85.7433
958	-85.7433
958.1	-85.7434
958.2	-85.7434
958.3	-85.7434
958.4	-85.7434
958.5	-85.7434
958.6	-85.7435
958.7	-85.7435
958.8	-85.7435
958.9	-85.7435
959	-85.7435
959.1	-85.7436
959.2	-85.7436
959.3	-85.7436
959.4	-85.7436
959.5	-85.7436
959.6	-85.7437
959.7	-85.7437
959.8	-85.7437
959.9	-85.7437
960	-85.7437
960.1	-85.7438
960.2	-85.7438
960.3	-85.7438
960.4	-85.7438
960.5	-85.7438
960.6	-85.7439
960.7	-85.7439
960.8	-85.7439
960.9	-85.7439
961	-85.7439
961.1	-85.7439
961.2	-85.744
961.3	-85.744
961.4	-85.744
961.5	-85.744
961.6	-85.744
961.7	-85.7441
961.8	-85.7441
961.9	-85.7441
962	-85.7441
962.1	-85.7441
962.2	-85.7442
962.3	-85.7442
962.4	-85.7442
962.5	-85.7442
962.6	-85.7442
962.7	-85.7443
962.8	-85.7443
962.9	-85.7443
963	-85.7443
963.1	-85.7443
963.2	-85.7444
963.3	-85.7444
963.4	-85.7444
963.5	-85.7444
963.6	-85.7444
963.7	-85.7444
963.8	-85.7445
963.9	-85.7445
964	-85.7445
964.1	-85.7445
964.2	-85.7445
964.3	-85.7446
964.4	-85.7446
964.5	-85.7446
964.6	-85.7446
964.7	-85.7446
964.8	-85.7447
964.9	-85.7447
965	-85.7447
965.1	-85.7447
965.2	-85.7447
965.3	-85.7448
965.4	-85.7448
965.5	-85.7448
965.6	-85.7448
965.7	-85.7448
965.8	-85.7448
965.9	-85.7449
966	-85.7449
966.1	-85.7449
966.2	-85.7449
966.3	-85.7449
966.4	-85.745
966.5	-85.745
966.6	-85.745
966.7	-85.745
966.8	-85.745
966.9	-85.7451
967	-85.7451
967.1	-85.7451
967.2	-85.7451
967.3	-85.7451
967.4	-85.7451
967.5	-85.7452
967.6	-85.7452
967.7	-85.7452
967.8	-85.7452
967.9	-85.7452
968	-85.7453
968.1	-85.7453
968.2	-85.7453
968.3	-85.7453
968.4	-85.7453
968.5	-85.7454
968.6	-85.7454
968.7	-85.7454
968.8	-85.7454
968.9	-85.7454
969	-85.7454
969.1	-85.7455
969.2	-85.7455
969.3	-85.7455
969.4	-85.7455
969.5	-85.7455
969.6	-85.7456
969.7	-85.7456
969.8	-85.7456
969.9	-85.7456
970	-85.7456
970.1	-85.7457
970.2	-85.7457
970.3	-85.7457
970.4	-85.7457
970.5	-85.7457
970.6	-85.7457
970.7	-85.7458
970.8	-85.7458
970.9	-85.7458
971	-85.7458
971.1	-85.7458
971.2	-85.7459
971.3	-85.7459
971.4	-85.7459
971.5	-85.7459
971.6	-85.7459
971.7	-85.7459
971.8	-85.746
971.9	-85.746
972	-85.746
972.1	-85.746
972.2	-85.746
972.3	-85.7461
972.4	-85.7461
972.5	-85.7461
972.6	-85.7461
972.7	-85.7461
972.8	-85.7462
972.9	-85.7462
973	-85.7462
973.1	-85.7462
973.2	-85.7462
973.3	-85.7462
973.4	-85.7463
973.5	-85.7463
973.6	-85.7463
973.7	-85.7463
973.8	-85.7463
973.9	-85.7464
974	-85.7464
974.1	-85.7464
974.2	-85.7464
974.3	-85.7464
974.4	-85.7464
974.5	-85.7465
974.6	-85.7465
974.7	-85.7465
974.8	-85.7465
974.9	-85.7465
975	-85.7466
975.1	-85.7466
975.2	-85.7466
975.3	-85.7466
975.4	-85.7466
975.5	-85.7466
975.6	-85.7467
975.7	-85.7467
975.8	-85.7467
975.9	-85.7467
976	-85.7467
976.1	-85.7468
976.2	-85.7468
976.3	-85.7468
976.4	-85.7468
976.5	-85.7468
976.6	-85.7468
976.7	-85.7469
976.8	-85.7469
976.9	-85.7469
977	-85.7469
977.1	-85.7469
977.2	-85.747
977.3	-85.747
977.4	-85.747
977.5	-85.747
977.6	-85.747
977.7	-85.747
977.8	-85.7471
977.9	-85.7471
978	-85.7471
978.1	-85.7471
978.2	-85.7471
978.3	-85.7471
978.4	-85.7472
978.5	-85.7472
978.6	-85.7472
978.7	-85.7472
978.8	-85.7472
978.9	-85.7473
979	-85.7473
979.1	-85.7473
979.2	-85.7473
979.3	-85.7473
979.4	-85.7473
979.5	-85.7474
979.6	-85.7474
979.7	-85.7474
979.8	-85.7474
979.9	-85.7474
980	-85.7475
980.1	-85.7475
980.2	-85.7475
980.3	-85.7475
980.4	-85.7475
980.5	-85.7475
980.6	-85.7476
980.7	-85.7476
980.8	-85.7476
980.9	-85.7476
981	-85.7476
981.1	-85.7476
981.2	-85.7477
981.3	-85.7477
981.4	-85.7477
981.5	-85.7477
981.6	-85.7477
981.7	-85.7478
981.8	-85.7478
981.9	-85.7478
982	-85.7478
982.1	-85.7478
982.2	-85.7478
982.3	-85.7479
982.4	-85.7479
982.5	-85.7479
982.6	-85.7479
982.7	-85.7479
982.8	-85.7479
982.9	-85.748
983	-85.748
983.1	-85.748
983.2	-85.748
983.3	-85.748
983.4	-85.7481
983.5	-85.7481
983.6	-85.7481
983.7	-85.7481
983.8	-85.7481
983.9	-85.7481
984	-85.7482
984.1	-85.7482
984.2	-85.7482
984.3	-85.7482
984.4	-85.7482
984.5	-85.7482
984.6	-85.7483
984.7	-85.7483
984.8	-85.7483
984.9	-85.7483
985	-85.7483
985.1	-85.7483
985.2	-85.7484
985.3	-85.7484
985.4	-85.7484
985.5	-85.7484
985.6	-85.7484
985.7	-85.7485
985.8	-85.7485
985.9	-85.7485
986	-85.7485
986.1	-85.7485
986.2	-85.7485
986.3	-85.7486
986.4	-85.7486
986.5	-85.7486
986.6	-85.7486
986.7	-85.7486
986.8	-85.7486
986.9	-85.7487
987	-85.7487
987.1	-85.7487
987.2	-85.7487
987.3	-85.7487
987.4	-85.7487
987.5	-85.7488
987.6	-85.7488
987.7	-85.7488
987.8	-85.7488
987.9	-85.7488
988	-85.7488
988.1	-85.7489
988.2	-85.7489
988.3	-85.7489
988.4	-85.7489
988.5	-85.7489
988.6	-85.749
988.7	-85.749
988.8	-85.749
988.9	-85.749
989	-85.749
989.1	-85.749
989.2	-85.7491
989.3	-85.7491
989.4	-85.7491
989.5	-85.7491
989.6	-85.7491
989.7	-85.7491
989.8	-85.7492
989.9	-85.7492
990	-85.7492
990.1	-85.7492
990.2	-85.7492
990.3	-85.7492
990.4	-85.7493
990.5	-85.7493
990.6	-85.7493
990.7	-85.7493
990.8	-85.7493
990.9	-85.7493
991	-85.7494
991.1	-85.7494
991.2	-85.7494
991.3	-85.7494
991.4	-85.7494
991.5	-85.7494
991.6	-85.7495
991.7	-85.7495
991.8	-85.7495
991.9	-85.7495
992	-85.7495
992.1	-85.7495
992.2	-85.7496
992.3	-85.7496
992.4	-85.7496
992.5	-85.7496
992.6	-85.7496
992.7	-85.7496
992.8	-85.7497
992.9	-85.7497
993	-85.7497
993.1	-85.7497
993.2	-85.7497
993.3	-85.7497
993.4	-85.7498
993.5	-85.7498
993.6	-85.7498
993.7	-85.7498
993.8	-85.7498
993.9	-85.7499
994	-85.7499
994.1	-85.7499
994.2	-85.7499
994.3	-85.7499
994.4	-85.7499
994.5	-85.75
994.6	-85.75
994.7	-85.75
994.8	-85.75
994.9	-85.75
995	-85.75
995.1	-85.7501
995.2	-85.7501
995.3	-85.7501
995.4	-85.7501
995.5	-85.7501
995.6	-85.7501
995.7	-85.7502
995.8	-85.7502
995.9	-85.7502
996	-85.7502
996.1	-85.7502
996.2	-85.7502
996.3	-85.7502
996.4	-85.7503
996.5	-85.7503
996.6	-85.7503
996.7	-85.7503
996.8	-85.7503
996.9	-85.7503
997	-85.7504
997.1	-85.7504
997.2	-85.7504
997.3	-85.7504
997.4	-85.7504
997.5	-85.7504
997.6	-85.7505
997.7	-85.7505
997.8	-85.7505
997.9	-85.7505
998	-85.7505
998.1	-85.7505
998.2	-85.7506
998.3	-85.7506
998.4	-85.7506
998.5	-85.7506
998.6	-85.7506
998.7	-85.7506
998.8	-85.7507
998.9	-85.7507
999	-85.7507
999.1	-85.7507
999.2	-85.7507
999.3	-85.7507
999.4	-85.7508
999.5	-85.7508
999.6	-85.7508
999.7	-85.7508
999.8	-85.7508
999.9	-85.7508
1000	-85.7508
