Time(ms)	Membrane_Voltage(mV)
-5	-85.749
-4.9	-85.749
-4.8	-85.7491
-4.7	-85.7491
-4.6	-85.7491
-4.5	-85.7491
-4.4	-85.7491
-4.3	-85.7491
-4.2	-85.7492
-4.1	-85.7492
-4	-85.7492
-3.9	-85.7492
-3.8	-85.7492
-3.7	-85.7492
-3.6	-85.7492
-3.5	-85.7493
-3.4	-85.7493
-3.3	-85.7493
-3.2	-85.7493
-3.1	-85.7493
-3	-85.7493
-2.9	-85.7494
-2.8	-85.7494
-2.7	-85.7494
-2.6	-85.7494
-2.5	-85.7494
-2.4	-85.7494
-2.3	-85.7494
-2.2	-85.7495
-2.1	-85.7495
-2	-85.7495
-1.9	-85.7495
-1.8	-85.7495
-1.7	-85.7495
-1.6	-85.7496
-1.5	-85.7496
-1.4	-85.7496
-1.3	-85.7496
-1.2	-85.7496
-1.1	-85.7496
-1	-85.7496
-0.9	-85.7497
-0.8	-85.7497
-0.7	-85.7497
-0.6	-85.7497
-0.5	-85.7497
-0.4	-85.7497
-0.3	-85.7498
-0.2	-85.7498
-0.1	-85.7498
0	-85.7498
0.1	-84.1721
0.2	-82.6342
0.3	-81.1303
0.4	-79.6553
0.5	-78.2043
0.6	-76.7731
0.7	-75.358
0.8	-73.9553
0.9	-72.5618
1	-71.1747
1.1	-69.7914
1.2	-68.4095
1.3	-67.0267
1.4	-65.6409
1.5	-64.2497
1.6	-62.8503
1.7	-61.4388
1.8	-60.0096
1.9	-58.5538
2	-57.0564
2.1	-55.4924
2.2	-53.8184
2.3	-51.9558
2.4	-49.7544
2.5	-46.9
2.6	-42.6551
2.7	-35.1392
2.8	-20.446
2.9	0.522678
3	15.1922
3.1	22.0182
3.2	24.9717
3.3	26.2516
3.4	26.8246
3.5	27.1156
3.6	27.316
3.7	27.5156
3.8	27.7578
3.9	28.0635
4	28.4412
4.1	28.8919
4.2	29.4119
4.3	29.9947
4.4	30.632
4.5	31.3148
4.6	32.0346
4.7	32.7832
4.8	33.5535
4.9	34.3393
5	35.1356
5.1	34.3666
5.2	33.6569
5.3	33.0009
5.4	32.3932
5.5	31.8283
5.6	31.3013
5.7	30.8079
5.8	30.3444
5.9	29.9072
6	29.4935
6.1	29.1007
6.2	28.7267
6.3	28.3695
6.4	28.0276
6.5	27.6994
6.6	27.3837
6.7	27.0796
6.8	26.786
6.9	26.5021
7	26.2273
7.1	25.9609
7.2	25.7024
7.3	25.4513
7.4	25.2072
7.5	24.9696
7.6	24.7382
7.7	24.5128
7.8	24.2931
7.9	24.0788
8	23.8696
8.1	23.6654
8.2	23.4661
8.3	23.2713
8.4	23.081
8.5	22.895
8.6	22.7131
8.7	22.5353
8.8	22.3615
8.9	22.1914
9	22.025
9.1	21.8623
9.2	21.703
9.3	21.5472
9.4	21.3947
9.5	21.2455
9.6	21.0994
9.7	20.9564
9.8	20.8165
9.9	20.6795
10	20.5454
10.1	20.4141
10.2	20.2856
10.3	20.1598
10.4	20.0367
10.5	19.9161
10.6	19.7981
10.7	19.6825
10.8	19.5694
10.9	19.4587
11	19.3502
11.1	19.2441
11.2	19.1402
11.3	19.0384
11.4	18.9388
11.5	18.8413
11.6	18.7458
11.7	18.6524
11.8	18.5609
11.9	18.4713
12	18.3836
12.1	18.2978
12.2	18.2138
12.3	18.1315
12.4	18.051
12.5	17.9721
12.6	17.895
12.7	17.8194
12.8	17.7455
12.9	17.6731
13	17.6022
13.1	17.5328
13.2	17.4649
13.3	17.3985
13.4	17.3334
13.5	17.2698
13.6	17.2074
13.7	17.1464
13.8	17.0867
13.9	17.0283
14	16.9711
14.1	16.9151
14.2	16.8604
14.3	16.8068
14.4	16.7543
14.5	16.703
14.6	16.6527
14.7	16.6036
14.8	16.5555
14.9	16.5084
15	16.4624
15.1	16.4174
15.2	16.3733
15.3	16.3302
15.4	16.288
15.5	16.2468
15.6	16.2064
15.7	16.1669
15.8	16.1283
15.9	16.0906
16	16.0537
16.1	16.0176
16.2	15.9823
16.3	15.9478
16.4	15.9141
16.5	15.8811
16.6	15.8488
16.7	15.8173
16.8	15.7866
16.9	15.7565
17	15.7271
17.1	15.6983
17.2	15.6703
17.3	15.6429
17.4	15.6161
17.5	15.5899
17.6	15.5644
17.7	15.5395
17.8	15.5151
17.9	15.4914
18	15.4682
18.1	15.4456
18.2	15.4235
18.3	15.402
18.4	15.3809
18.5	15.3604
18.6	15.3405
18.7	15.321
18.8	15.302
18.9	15.2835
19	15.2654
19.1	15.2479
19.2	15.2308
19.3	15.2141
19.4	15.1979
19.5	15.1821
19.6	15.1667
19.7	15.1517
19.8	15.1372
19.9	15.123
20	15.1092
20.1	15.0958
20.2	15.0828
20.3	15.0702
20.4	15.0579
20.5	15.046
20.6	15.0345
20.7	15.0232
20.8	15.0123
20.9	15.0018
21	14.9916
21.1	14.9816
21.2	14.972
21.3	14.9627
21.4	14.9537
21.5	14.945
21.6	14.9366
21.7	14.9284
21.8	14.9206
21.9	14.913
22	14.9056
22.1	14.8986
22.2	14.8917
22.3	14.8852
22.4	14.8788
22.5	14.8727
22.6	14.8669
22.7	14.8612
22.8	14.8558
22.9	14.8506
23	14.8456
23.1	14.8409
23.2	14.8363
23.3	14.8319
23.4	14.8277
23.5	14.8238
23.6	14.8199
23.7	14.8163
23.8	14.8129
23.9	14.8096
24	14.8065
24.1	14.8035
24.2	14.8007
24.3	14.7981
24.4	14.7956
24.5	14.7933
24.6	14.7911
24.7	14.7891
24.8	14.7871
24.9	14.7854
25	14.7837
25.1	14.7822
25.2	14.7808
25.3	14.7795
25.4	14.7783
25.5	14.7772
25.6	14.7762
25.7	14.7754
25.8	14.7746
25.9	14.774
26	14.7734
26.1	14.7729
26.2	14.7725
26.3	14.7722
26.4	14.772
26.5	14.7718
26.6	14.7717
26.7	14.7717
26.8	14.7718
26.9	14.7719
27	14.7721
27.1	14.7724
27.2	14.7727
27.3	14.773
27.4	14.7735
27.5	14.7739
27.6	14.7744
27.7	14.775
27.8	14.7756
27.9	14.7762
28	14.7769
28.1	14.7776
28.2	14.7783
28.3	14.7791
28.4	14.7799
28.5	14.7807
28.6	14.7815
28.7	14.7824
28.8	14.7833
28.9	14.7841
29	14.785
29.1	14.786
29.2	14.7869
29.3	14.7878
29.4	14.7887
29.5	14.7897
29.6	14.7906
29.7	14.7916
29.8	14.7925
29.9	14.7934
30	14.7943
30.1	14.7953
30.2	14.7962
30.3	14.7971
30.4	14.7979
30.5	14.7988
30.6	14.7997
30.7	14.8005
30.8	14.8013
30.9	14.8021
31	14.8028
31.1	14.8036
31.2	14.8043
31.3	14.805
31.4	14.8056
31.5	14.8063
31.6	14.8069
31.7	14.8074
31.8	14.8079
31.9	14.8084
32	14.8089
32.1	14.8093
32.2	14.8097
32.3	14.81
32.4	14.8103
32.5	14.8105
32.6	14.8107
32.7	14.8109
32.8	14.811
32.9	14.8111
33	14.8111
33.1	14.811
33.2	14.811
33.3	14.8108
33.4	14.8106
33.5	14.8104
33.6	14.8101
33.7	14.8097
33.8	14.8093
33.9	14.8088
34	14.8083
34.1	14.8077
34.2	14.8071
34.3	14.8063
34.4	14.8056
34.5	14.8047
34.6	14.8038
34.7	14.8029
34.8	14.8018
34.9	14.8007
35	14.7996
35.1	14.7984
35.2	14.7971
35.3	14.7957
35.4	14.7943
35.5	14.7928
35.6	14.7912
35.7	14.7896
35.8	14.7878
35.9	14.7861
36	14.7842
36.1	14.7823
36.2	14.7803
36.3	14.7782
36.4	14.7761
36.5	14.7738
36.6	14.7715
36.7	14.7692
36.8	14.7667
36.9	14.7642
37	14.7616
37.1	14.7589
37.2	14.7561
37.3	14.7533
37.4	14.7504
37.5	14.7474
37.6	14.7443
37.7	14.7412
37.8	14.738
37.9	14.7346
38	14.7313
38.1	14.7278
38.2	14.7242
38.3	14.7206
38.4	14.7169
38.5	14.7131
38.6	14.7092
38.7	14.7053
38.8	14.7013
38.9	14.6971
39	14.6929
39.1	14.6887
39.2	14.6843
39.3	14.6799
39.4	14.6753
39.5	14.6707
39.6	14.666
39.7	14.6612
39.8	14.6564
39.9	14.6514
40	14.6464
40.1	14.6413
40.2	14.6361
40.3	14.6308
40.4	14.6255
40.5	14.62
40.6	14.6145
40.7	14.6089
40.8	14.6032
40.9	14.5974
41	14.5916
41.1	14.5856
41.2	14.5796
41.3	14.5735
41.4	14.5673
41.5	14.561
41.6	14.5547
41.7	14.5482
41.8	14.5417
41.9	14.5351
42	14.5284
42.1	14.5216
42.2	14.5147
42.3	14.5078
42.4	14.5007
42.5	14.4936
42.6	14.4864
42.7	14.4792
42.8	14.4718
42.9	14.4643
43	14.4568
43.1	14.4492
43.2	14.4415
43.3	14.4337
43.4	14.4259
43.5	14.4179
43.6	14.4099
43.7	14.4018
43.8	14.3936
43.9	14.3854
44	14.377
44.1	14.3686
44.2	14.3601
44.3	14.3515
44.4	14.3428
44.5	14.334
44.6	14.3252
44.7	14.3163
44.8	14.3073
44.9	14.2982
45	14.289
45.1	14.2798
45.2	14.2705
45.3	14.2611
45.4	14.2516
45.5	14.242
45.6	14.2324
45.7	14.2227
45.8	14.2129
45.9	14.203
46	14.1931
46.1	14.183
46.2	14.1729
46.3	14.1627
46.4	14.1525
46.5	14.1421
46.6	14.1317
46.7	14.1212
46.8	14.1106
46.9	14.1
47	14.0893
47.1	14.0785
47.2	14.0676
47.3	14.0566
47.4	14.0456
47.5	14.0345
47.6	14.0233
47.7	14.0121
47.8	14.0007
47.9	13.9893
48	13.9779
48.1	13.9663
48.2	13.9547
48.3	13.943
48.4	13.9312
48.5	13.9194
48.6	13.9074
48.7	13.8954
48.8	13.8834
48.9	13.8712
49	13.859
49.1	13.8468
49.2	13.8344
49.3	13.822
49.4	13.8095
49.5	13.7969
49.6	13.7843
49.7	13.7716
49.8	13.7588
49.9	13.7459
50	13.733
50.1	13.72
50.2	13.707
50.3	13.6939
50.4	13.6807
50.5	13.6674
50.6	13.6541
50.7	13.6407
50.8	13.6272
50.9	13.6137
51	13.6001
51.1	13.5864
51.2	13.5727
51.3	13.5589
51.4	13.545
51.5	13.5311
51.6	13.5171
51.7	13.503
51.8	13.4889
51.9	13.4747
52	13.4604
52.1	13.4461
52.2	13.4317
52.3	13.4172
52.4	13.4027
52.5	13.3881
52.6	13.3735
52.7	13.3587
52.8	13.344
52.9	13.3291
53	13.3142
53.1	13.2993
53.2	13.2842
53.3	13.2692
53.4	13.254
53.5	13.2388
53.6	13.2235
53.7	13.2082
53.8	13.1928
53.9	13.1773
54	13.1618
54.1	13.1462
54.2	13.1306
54.3	13.1149
54.4	13.0992
54.5	13.0833
54.6	13.0675
54.7	13.0515
54.8	13.0355
54.9	13.0195
55	13.0034
55.1	12.9872
55.2	12.971
55.3	12.9547
55.4	12.9384
55.5	12.922
55.6	12.9055
55.7	12.889
55.8	12.8725
55.9	12.8558
56	12.8392
56.1	12.8224
56.2	12.8056
56.3	12.7888
56.4	12.7719
56.5	12.755
56.6	12.7379
56.7	12.7209
56.8	12.7038
56.9	12.6866
57	12.6694
57.1	12.6521
57.2	12.6348
57.3	12.6174
57.4	12.5999
57.5	12.5825
57.6	12.5649
57.7	12.5473
57.8	12.5297
57.9	12.512
58	12.4942
58.1	12.4764
58.2	12.4586
58.3	12.4407
58.4	12.4227
58.5	12.4047
58.6	12.3866
58.7	12.3685
58.8	12.3504
58.9	12.3322
59	12.3139
59.1	12.2956
59.2	12.2772
59.3	12.2588
59.4	12.2404
59.5	12.2219
59.6	12.2033
59.7	12.1847
59.8	12.1661
59.9	12.1474
60	12.1286
60.1	12.1098
60.2	12.091
60.3	12.0721
60.4	12.0532
60.5	12.0342
60.6	12.0152
60.7	11.9961
60.8	11.977
60.9	11.9578
61	11.9386
61.1	11.9193
61.2	11.9
61.3	11.8807
61.4	11.8613
61.5	11.8418
61.6	11.8223
61.7	11.8028
61.8	11.7832
61.9	11.7636
62	11.7439
62.1	11.7242
62.2	11.7045
62.3	11.6847
62.4	11.6648
62.5	11.6449
62.6	11.625
62.7	11.605
62.8	11.585
62.9	11.565
63	11.5448
63.1	11.5247
63.2	11.5045
63.3	11.4843
63.4	11.464
63.5	11.4437
63.6	11.4233
63.7	11.4029
63.8	11.3825
63.9	11.362
64	11.3415
64.1	11.3209
64.2	11.3003
64.3	11.2797
64.4	11.259
64.5	11.2382
64.6	11.2175
64.7	11.1967
64.8	11.1758
64.9	11.1549
65	11.134
65.1	11.113
65.2	11.092
65.3	11.0709
65.4	11.0498
65.5	11.0287
65.6	11.0075
65.7	10.9863
65.8	10.9651
65.9	10.9438
66	10.9225
66.1	10.9011
66.2	10.8797
66.3	10.8583
66.4	10.8368
66.5	10.8153
66.6	10.7937
66.7	10.7721
66.8	10.7505
66.9	10.7288
67	10.7071
67.1	10.6853
67.2	10.6636
67.3	10.6417
67.4	10.6199
67.5	10.598
67.6	10.576
67.7	10.5541
67.8	10.5321
67.9	10.51
68	10.4879
68.1	10.4658
68.2	10.4437
68.3	10.4215
68.4	10.3992
68.5	10.377
68.6	10.3547
68.7	10.3324
68.8	10.31
68.9	10.2876
69	10.2651
69.1	10.2427
69.2	10.2201
69.3	10.1976
69.4	10.175
69.5	10.1524
69.6	10.1297
69.7	10.107
69.8	10.0843
69.9	10.0615
70	10.0388
70.1	10.0159
70.2	9.99306
70.3	9.97015
70.4	9.94722
70.5	9.92425
70.6	9.90125
70.7	9.87821
70.8	9.85513
70.9	9.83203
71	9.80889
71.1	9.78571
71.2	9.7625
71.3	9.73926
71.4	9.71598
71.5	9.69267
71.6	9.66932
71.7	9.64595
71.8	9.62253
71.9	9.59909
72	9.57561
72.1	9.5521
72.2	9.52855
72.3	9.50497
72.4	9.48136
72.5	9.45771
72.6	9.43403
72.7	9.41032
72.8	9.38657
72.9	9.36279
73	9.33898
73.1	9.31513
73.2	9.29126
73.3	9.26734
73.4	9.2434
73.5	9.21942
73.6	9.19542
73.7	9.17137
73.8	9.1473
73.9	9.12319
74	9.09905
74.1	9.07488
74.2	9.05068
74.3	9.02644
74.4	9.00217
74.5	8.97787
74.6	8.95353
74.7	8.92917
74.8	8.90477
74.9	8.88034
75	8.85587
75.1	8.83138
75.2	8.80685
75.3	8.78229
75.4	8.7577
75.5	8.73307
75.6	8.70842
75.7	8.68373
75.8	8.65901
75.9	8.63426
76	8.60947
76.1	8.58466
76.2	8.55981
76.3	8.53493
76.4	8.51002
76.5	8.48508
76.6	8.4601
76.7	8.4351
76.8	8.41006
76.9	8.38499
77	8.35988
77.1	8.33475
77.2	8.30959
77.3	8.28439
77.4	8.25916
77.5	8.2339
77.6	8.20861
77.7	8.18328
77.8	8.15793
77.9	8.13254
78	8.10712
78.1	8.08167
78.2	8.05619
78.3	8.03067
78.4	8.00513
78.5	7.97955
78.6	7.95394
78.7	7.9283
78.8	7.90263
78.9	7.87693
79	7.85119
79.1	7.82542
79.2	7.79963
79.3	7.7738
79.4	7.74793
79.5	7.72204
79.6	7.69612
79.7	7.67016
79.8	7.64417
79.9	7.61815
80	7.5921
80.1	7.56601
80.2	7.5399
80.3	7.51375
80.4	7.48757
80.5	7.46136
80.6	7.43512
80.7	7.40885
80.8	7.38254
80.9	7.3562
81	7.32983
81.1	7.30343
81.2	7.277
81.3	7.25053
81.4	7.22404
81.5	7.19751
81.6	7.17095
81.7	7.14436
81.8	7.11773
81.9	7.09107
82	7.06439
82.1	7.03766
82.2	7.01091
82.3	6.98413
82.4	6.95731
82.5	6.93046
82.6	6.90358
82.7	6.87666
82.8	6.84972
82.9	6.82274
83	6.79573
83.1	6.76869
83.2	6.74161
83.3	6.7145
83.4	6.68736
83.5	6.66019
83.6	6.63299
83.7	6.60575
83.8	6.57848
83.9	6.55118
84	6.52384
84.1	6.49647
84.2	6.46907
84.3	6.44164
84.4	6.41417
84.5	6.38667
84.6	6.35914
84.7	6.33157
84.8	6.30397
84.9	6.27634
85	6.24868
85.1	6.22098
85.2	6.19325
85.3	6.16549
85.4	6.13769
85.5	6.10986
85.6	6.082
85.7	6.0541
85.8	6.02617
85.9	5.9982
86	5.97021
86.1	5.94217
86.2	5.91411
86.3	5.88601
86.4	5.85788
86.5	5.82971
86.6	5.80151
86.7	5.77328
86.8	5.74501
86.9	5.71671
87	5.68837
87.1	5.66
87.2	5.6316
87.3	5.60316
87.4	5.57469
87.5	5.54618
87.6	5.51764
87.7	5.48906
87.8	5.46045
87.9	5.43181
88	5.40313
88.1	5.37441
88.2	5.34566
88.3	5.31688
88.4	5.28806
88.5	5.2592
88.6	5.23031
88.7	5.20139
88.8	5.17243
88.9	5.14344
89	5.11441
89.1	5.08534
89.2	5.05624
89.3	5.0271
89.4	4.99793
89.5	4.96873
89.6	4.93948
89.7	4.9102
89.8	4.88089
89.9	4.85154
90	4.82215
90.1	4.79273
90.2	4.76327
90.3	4.73377
90.4	4.70424
90.5	4.67468
90.6	4.64507
90.7	4.61543
90.8	4.58576
90.9	4.55604
91	4.52629
91.1	4.4965
91.2	4.46668
91.3	4.43682
91.4	4.40692
91.5	4.37699
91.6	4.34702
91.7	4.31701
91.8	4.28696
91.9	4.25688
92	4.22675
92.1	4.1966
92.2	4.1664
92.3	4.13616
92.4	4.10589
92.5	4.07558
92.6	4.04524
92.7	4.01485
92.8	3.98443
92.9	3.95396
93	3.92346
93.1	3.89293
93.2	3.86235
93.3	3.83173
93.4	3.80108
93.5	3.77039
93.6	3.73966
93.7	3.70888
93.8	3.67808
93.9	3.64723
94	3.61634
94.1	3.58541
94.2	3.55445
94.3	3.52344
94.4	3.4924
94.5	3.46132
94.6	3.43019
94.7	3.39903
94.8	3.36783
94.9	3.33659
95	3.3053
95.1	3.27398
95.2	3.24262
95.3	3.21122
95.4	3.17977
95.5	3.14829
95.6	3.11677
95.7	3.0852
95.8	3.0536
95.9	3.02195
96	2.99027
96.1	2.95854
96.2	2.92677
96.3	2.89496
96.4	2.86311
96.5	2.83122
96.6	2.79929
96.7	2.76732
96.8	2.7353
96.9	2.70324
97	2.67115
97.1	2.63901
97.2	2.60682
97.3	2.5746
97.4	2.54233
97.5	2.51003
97.6	2.47768
97.7	2.44528
97.8	2.41285
97.9	2.38037
98	2.34785
98.1	2.31529
98.2	2.28269
98.3	2.25004
98.4	2.21735
98.5	2.18462
98.6	2.15184
98.7	2.11902
98.8	2.08616
98.9	2.05325
99	2.0203
99.1	1.98731
99.2	1.95428
99.3	1.9212
99.4	1.88807
99.5	1.85491
99.6	1.8217
99.7	1.78844
99.8	1.75514
99.9	1.7218
100	1.68841
100.1	1.65498
100.2	1.62151
100.3	1.58799
100.4	1.55442
100.5	1.52081
100.6	1.48716
100.7	1.45346
100.8	1.41972
100.9	1.38593
101	1.35209
101.1	1.31821
101.2	1.28429
101.3	1.25032
101.4	1.21631
101.5	1.18225
101.6	1.14814
101.7	1.11399
101.8	1.07979
101.9	1.04555
102	1.01126
102.1	0.97693
102.2	0.94255
102.3	0.908124
102.4	0.873652
102.5	0.839134
102.6	0.804569
102.7	0.769958
102.8	0.735301
102.9	0.700597
103	0.665846
103.1	0.631049
103.2	0.596205
103.3	0.561315
103.4	0.526377
103.5	0.491393
103.6	0.456361
103.7	0.421283
103.8	0.386157
103.9	0.350984
104	0.315764
104.1	0.280496
104.2	0.245181
104.3	0.209819
104.4	0.174409
104.5	0.138951
104.6	0.103446
104.7	0.0678925
104.8	0.0322916
104.9	-0.00335723
105	-0.039054
105.1	-0.0747987
105.2	-0.110592
105.3	-0.146432
105.4	-0.182322
105.5	-0.218259
105.6	-0.254245
105.7	-0.290279
105.8	-0.326361
105.9	-0.362492
106	-0.398672
106.1	-0.4349
106.2	-0.471176
106.3	-0.507502
106.4	-0.543876
106.5	-0.580299
106.6	-0.61677
106.7	-0.653291
106.8	-0.689861
106.9	-0.726479
107	-0.763147
107.1	-0.799864
107.2	-0.83663
107.3	-0.873445
107.4	-0.910309
107.5	-0.947223
107.6	-0.984186
107.7	-1.0212
107.8	-1.05826
107.9	-1.09537
108	-1.13253
108.1	-1.16974
108.2	-1.207
108.3	-1.24431
108.4	-1.28167
108.5	-1.31908
108.6	-1.35654
108.7	-1.39404
108.8	-1.4316
108.9	-1.46921
109	-1.50687
109.1	-1.54457
109.2	-1.58233
109.3	-1.62014
109.4	-1.65799
109.5	-1.6959
109.6	-1.73386
109.7	-1.77186
109.8	-1.80992
109.9	-1.84803
110	-1.88618
110.1	-1.92439
110.2	-1.96265
110.3	-2.00095
110.4	-2.03931
110.5	-2.07772
110.6	-2.11617
110.7	-2.15468
110.8	-2.19324
110.9	-2.23184
111	-2.2705
111.1	-2.30921
111.2	-2.34797
111.3	-2.38678
111.4	-2.42563
111.5	-2.46454
111.6	-2.5035
111.7	-2.54251
111.8	-2.58157
111.9	-2.62068
112	-2.65984
112.1	-2.69905
112.2	-2.73831
112.3	-2.77762
112.4	-2.81698
112.5	-2.85639
112.6	-2.89585
112.7	-2.93536
112.8	-2.97492
112.9	-3.01453
113	-3.05419
113.1	-3.0939
113.2	-3.13366
113.3	-3.17347
113.4	-3.21333
113.5	-3.25323
113.6	-3.29319
113.7	-3.3332
113.8	-3.37326
113.9	-3.41337
114	-3.45353
114.1	-3.49374
114.2	-3.534
114.3	-3.5743
114.4	-3.61466
114.5	-3.65507
114.6	-3.69552
114.7	-3.73603
114.8	-3.77659
114.9	-3.81719
115	-3.85784
115.1	-3.89855
115.2	-3.9393
115.3	-3.9801
115.4	-4.02095
115.5	-4.06185
115.6	-4.1028
115.7	-4.1438
115.8	-4.18484
115.9	-4.22594
116	-4.26708
116.1	-4.30828
116.2	-4.34952
116.3	-4.39081
116.4	-4.43215
116.5	-4.47353
116.6	-4.51497
116.7	-4.55645
116.8	-4.59798
116.9	-4.63956
117	-4.68119
117.1	-4.72287
117.2	-4.76459
117.3	-4.80636
117.4	-4.84818
117.5	-4.89005
117.6	-4.93196
117.7	-4.97393
117.8	-5.01594
117.9	-5.05799
118	-5.1001
118.1	-5.14225
118.2	-5.18445
118.3	-5.22669
118.4	-5.26898
118.5	-5.31132
118.6	-5.35371
118.7	-5.39614
118.8	-5.43862
118.9	-5.48114
119	-5.52371
119.1	-5.56633
119.2	-5.60899
119.3	-5.6517
119.4	-5.69445
119.5	-5.73725
119.6	-5.7801
119.7	-5.82299
119.8	-5.86592
119.9	-5.90891
120	-5.95193
120.1	-5.995
120.2	-6.03812
120.3	-6.08128
120.4	-6.12449
120.5	-6.16774
120.6	-6.21103
120.7	-6.25437
120.8	-6.29775
120.9	-6.34118
121	-6.38465
121.1	-6.42816
121.2	-6.47172
121.3	-6.51532
121.4	-6.55896
121.5	-6.60265
121.6	-6.64638
121.7	-6.69015
121.8	-6.73397
121.9	-6.77783
122	-6.82173
122.1	-6.86567
122.2	-6.90966
122.3	-6.95368
122.4	-6.99775
122.5	-7.04186
122.6	-7.08601
122.7	-7.13021
122.8	-7.17444
122.9	-7.21872
123	-7.26304
123.1	-7.30739
123.2	-7.35179
123.3	-7.39623
123.4	-7.44071
123.5	-7.48523
123.6	-7.52979
123.7	-7.57439
123.8	-7.61903
123.9	-7.6637
124	-7.70842
124.1	-7.75318
124.2	-7.79797
124.3	-7.84281
124.4	-7.88768
124.5	-7.9326
124.6	-7.97755
124.7	-8.02253
124.8	-8.06756
124.9	-8.11263
125	-8.15773
125.1	-8.20287
125.2	-8.24805
125.3	-8.29326
125.4	-8.33851
125.5	-8.3838
125.6	-8.42913
125.7	-8.47449
125.8	-8.51989
125.9	-8.56532
126	-8.61079
126.1	-8.6563
126.2	-8.70184
126.3	-8.74742
126.4	-8.79304
126.5	-8.83868
126.6	-8.88437
126.7	-8.93009
126.8	-8.97584
126.9	-9.02163
127	-9.06745
127.1	-9.11331
127.2	-9.1592
127.3	-9.20512
127.4	-9.25108
127.5	-9.29707
127.6	-9.3431
127.7	-9.38916
127.8	-9.43525
127.9	-9.48137
128	-9.52753
128.1	-9.57372
128.2	-9.61994
128.3	-9.6662
128.4	-9.71249
128.5	-9.7588
128.6	-9.80515
128.7	-9.85154
128.8	-9.89795
128.9	-9.94439
129	-9.99087
129.1	-10.0374
129.2	-10.0839
129.3	-10.1305
129.4	-10.1771
129.5	-10.2237
129.6	-10.2704
129.7	-10.3171
129.8	-10.3638
129.9	-10.4105
130	-10.4573
130.1	-10.5041
130.2	-10.5509
130.3	-10.5978
130.4	-10.6447
130.5	-10.6916
130.6	-10.7386
130.7	-10.7855
130.8	-10.8326
130.9	-10.8796
131	-10.9267
131.1	-10.9737
131.2	-11.0209
131.3	-11.068
131.4	-11.1152
131.5	-11.1624
131.6	-11.2096
131.7	-11.2569
131.8	-11.3042
131.9	-11.3515
132	-11.3988
132.1	-11.4462
132.2	-11.4935
132.3	-11.541
132.4	-11.5884
132.5	-11.6359
132.6	-11.6833
132.7	-11.7309
132.8	-11.7784
132.9	-11.826
133	-11.8736
133.1	-11.9212
133.2	-11.9688
133.3	-12.0165
133.4	-12.0642
133.5	-12.1119
133.6	-12.1596
133.7	-12.2074
133.8	-12.2552
133.9	-12.303
134	-12.3508
134.1	-12.3987
134.2	-12.4466
134.3	-12.4945
134.4	-12.5424
134.5	-12.5904
134.6	-12.6383
134.7	-12.6863
134.8	-12.7344
134.9	-12.7824
135	-12.8305
135.1	-12.8786
135.2	-12.9267
135.3	-12.9748
135.4	-13.023
135.5	-13.0712
135.6	-13.1194
135.7	-13.1676
135.8	-13.2158
135.9	-13.2641
136	-13.3124
136.1	-13.3607
136.2	-13.409
136.3	-13.4574
136.4	-13.5058
136.5	-13.5542
136.6	-13.6026
136.7	-13.651
136.8	-13.6995
136.9	-13.748
137	-13.7965
137.1	-13.845
137.2	-13.8936
137.3	-13.9421
137.4	-13.9907
137.5	-14.0393
137.6	-14.088
137.7	-14.1366
137.8	-14.1853
137.9	-14.234
138	-14.2827
138.1	-14.3314
138.2	-14.3802
138.3	-14.4289
138.4	-14.4777
138.5	-14.5266
138.6	-14.5754
138.7	-14.6242
138.8	-14.6731
138.9	-14.722
139	-14.7709
139.1	-14.8199
139.2	-14.8688
139.3	-14.9178
139.4	-14.9668
139.5	-15.0158
139.6	-15.0649
139.7	-15.1139
139.8	-15.163
139.9	-15.2121
140	-15.2612
140.1	-15.3103
140.2	-15.3595
140.3	-15.4087
140.4	-15.4579
140.5	-15.5071
140.6	-15.5563
140.7	-15.6056
140.8	-15.6549
140.9	-15.7042
141	-15.7535
141.1	-15.8028
141.2	-15.8522
141.3	-15.9016
141.4	-15.951
141.5	-16.0004
141.6	-16.0498
141.7	-16.0993
141.8	-16.1488
141.9	-16.1983
142	-16.2478
142.1	-16.2973
142.2	-16.3469
142.3	-16.3965
142.4	-16.4461
142.5	-16.4957
142.6	-16.5454
142.7	-16.5951
142.8	-16.6448
142.9	-16.6945
143	-16.7442
143.1	-16.794
143.2	-16.8438
143.3	-16.8936
143.4	-16.9434
143.5	-16.9932
143.6	-17.0431
143.7	-17.093
143.8	-17.1429
143.9	-17.1928
144	-17.2428
144.1	-17.2928
144.2	-17.3428
144.3	-17.3928
144.4	-17.4429
144.5	-17.493
144.6	-17.5431
144.7	-17.5932
144.8	-17.6433
144.9	-17.6935
145	-17.7437
145.1	-17.7939
145.2	-17.8442
145.3	-17.8944
145.4	-17.9447
145.5	-17.9951
145.6	-18.0454
145.7	-18.0958
145.8	-18.1462
145.9	-18.1966
146	-18.2471
146.1	-18.2976
146.2	-18.3481
146.3	-18.3986
146.4	-18.4492
146.5	-18.4998
146.6	-18.5504
146.7	-18.601
146.8	-18.6517
146.9	-18.7024
147	-18.7532
147.1	-18.8039
147.2	-18.8547
147.3	-18.9056
147.4	-18.9564
147.5	-19.0073
147.6	-19.0582
147.7	-19.1092
147.8	-19.1601
147.9	-19.2112
148	-19.2622
148.1	-19.3133
148.2	-19.3644
148.3	-19.4156
148.4	-19.4667
148.5	-19.5179
148.6	-19.5692
148.7	-19.6205
148.8	-19.6718
148.9	-19.7232
149	-19.7746
149.1	-19.826
149.2	-19.8774
149.3	-19.929
149.4	-19.9805
149.5	-20.0321
149.6	-20.0837
149.7	-20.1354
149.8	-20.1871
149.9	-20.2388
150	-20.2906
150.1	-20.3424
150.2	-20.3943
150.3	-20.4462
150.4	-20.4981
150.5	-20.5501
150.6	-20.6022
150.7	-20.6542
150.8	-20.7064
150.9	-20.7585
151	-20.8108
151.1	-20.863
151.2	-20.9153
151.3	-20.9677
151.4	-21.0201
151.5	-21.0726
151.6	-21.1251
151.7	-21.1776
151.8	-21.2302
151.9	-21.2829
152	-21.3356
152.1	-21.3884
152.2	-21.4412
152.3	-21.494
152.4	-21.547
152.5	-21.5999
152.6	-21.653
152.7	-21.7061
152.8	-21.7592
152.9	-21.8124
153	-21.8657
153.1	-21.919
153.2	-21.9724
153.3	-22.0259
153.4	-22.0794
153.5	-22.133
153.6	-22.1866
153.7	-22.2403
153.8	-22.2941
153.9	-22.3479
154	-22.4018
154.1	-22.4558
154.2	-22.5098
154.3	-22.5639
154.4	-22.6181
154.5	-22.6723
154.6	-22.7266
154.7	-22.781
154.8	-22.8355
154.9	-22.89
155	-22.9446
155.1	-22.9993
155.2	-23.0541
155.3	-23.1089
155.4	-23.1638
155.5	-23.2188
155.6	-23.2739
155.7	-23.3291
155.8	-23.3843
155.9	-23.4396
156	-23.4951
156.1	-23.5506
156.2	-23.6061
156.3	-23.6618
156.4	-23.7176
156.5	-23.7734
156.6	-23.8294
156.7	-23.8854
156.8	-23.9415
156.9	-23.9977
157	-24.0541
157.1	-24.1105
157.2	-24.167
157.3	-24.2236
157.4	-24.2803
157.5	-24.3371
157.6	-24.394
157.7	-24.451
157.8	-24.5081
157.9	-24.5653
158	-24.6227
158.1	-24.6801
158.2	-24.7376
158.3	-24.7953
158.4	-24.8531
158.5	-24.9109
158.6	-24.9689
158.7	-25.027
158.8	-25.0852
158.9	-25.1436
159	-25.202
159.1	-25.2606
159.2	-25.3193
159.3	-25.3781
159.4	-25.437
159.5	-25.4961
159.6	-25.5553
159.7	-25.6146
159.8	-25.6741
159.9	-25.7336
160	-25.7933
160.1	-25.8532
160.2	-25.9132
160.3	-25.9733
160.4	-26.0335
160.5	-26.0939
160.6	-26.1544
160.7	-26.2151
160.8	-26.2759
160.9	-26.3368
161	-26.3979
161.1	-26.4592
161.2	-26.5206
161.3	-26.5821
161.4	-26.6438
161.5	-26.7056
161.6	-26.7676
161.7	-26.8298
161.8	-26.8921
161.9	-26.9545
162	-27.0171
162.1	-27.0799
162.2	-27.1429
162.3	-27.206
162.4	-27.2692
162.5	-27.3327
162.6	-27.3963
162.7	-27.46
162.8	-27.524
162.9	-27.5881
163	-27.6524
163.1	-27.7168
163.2	-27.7815
163.3	-27.8463
163.4	-27.9113
163.5	-27.9765
163.6	-28.0418
163.7	-28.1074
163.8	-28.1731
163.9	-28.239
164	-28.3051
164.1	-28.3714
164.2	-28.4379
164.3	-28.5046
164.4	-28.5714
164.5	-28.6385
164.6	-28.7057
164.7	-28.7732
164.8	-28.8409
164.9	-28.9087
165	-28.9768
165.1	-29.045
165.2	-29.1135
165.3	-29.1822
165.4	-29.2511
165.5	-29.3201
165.6	-29.3894
165.7	-29.459
165.8	-29.5287
165.9	-29.5986
166	-29.6688
166.1	-29.7392
166.2	-29.8098
166.3	-29.8806
166.4	-29.9516
166.5	-30.0229
166.6	-30.0944
166.7	-30.1661
166.8	-30.238
166.9	-30.3102
167	-30.3826
167.1	-30.4552
167.2	-30.5281
167.3	-30.6012
167.4	-30.6746
167.5	-30.7481
167.6	-30.8219
167.7	-30.896
167.8	-30.9703
167.9	-31.0448
168	-31.1196
168.1	-31.1946
168.2	-31.2699
168.3	-31.3454
168.4	-31.4212
168.5	-31.4972
168.6	-31.5734
168.7	-31.6499
168.8	-31.7267
168.9	-31.8037
169	-31.881
169.1	-31.9586
169.2	-32.0364
169.3	-32.1144
169.4	-32.1927
169.5	-32.2713
169.6	-32.3501
169.7	-32.4292
169.8	-32.5086
169.9	-32.5883
170	-32.6682
170.1	-32.7483
170.2	-32.8288
170.3	-32.9095
170.4	-32.9905
170.5	-33.0717
170.6	-33.1533
170.7	-33.2351
170.8	-33.3172
170.9	-33.3995
171	-33.4822
171.1	-33.5651
171.2	-33.6483
171.3	-33.7318
171.4	-33.8156
171.5	-33.8996
171.6	-33.9839
171.7	-34.0686
171.8	-34.1535
171.9	-34.2387
172	-34.3242
172.1	-34.41
172.2	-34.4961
172.3	-34.5824
172.4	-34.6691
172.5	-34.7561
172.6	-34.8433
172.7	-34.9309
172.8	-35.0187
172.9	-35.1069
173	-35.1953
173.1	-35.2841
173.2	-35.3731
173.3	-35.4625
173.4	-35.5522
173.5	-35.6422
173.6	-35.7324
173.7	-35.823
173.8	-35.9139
173.9	-36.0052
174	-36.0967
174.1	-36.1885
174.2	-36.2807
174.3	-36.3731
174.4	-36.4659
174.5	-36.559
174.6	-36.6525
174.7	-36.7462
174.8	-36.8403
174.9	-36.9347
175	-37.0294
175.1	-37.1244
175.2	-37.2198
175.3	-37.3155
175.4	-37.4115
175.5	-37.5079
175.6	-37.6045
175.7	-37.7016
175.8	-37.7989
175.9	-37.8966
176	-37.9946
176.1	-38.093
176.2	-38.1917
176.3	-38.2907
176.4	-38.3901
176.5	-38.4899
176.6	-38.5899
176.7	-38.6904
176.8	-38.7911
176.9	-38.8923
177	-38.9937
177.1	-39.0956
177.2	-39.1977
177.3	-39.3003
177.4	-39.4032
177.5	-39.5064
177.6	-39.61
177.7	-39.714
177.8	-39.8183
177.9	-39.923
178	-40.0281
178.1	-40.1336
178.2	-40.2394
178.3	-40.3455
178.4	-40.4521
178.5	-40.559
178.6	-40.6663
178.7	-40.774
178.8	-40.8821
178.9	-40.9905
179	-41.0994
179.1	-41.2086
179.2	-41.3182
179.3	-41.4282
179.4	-41.5386
179.5	-41.6494
179.6	-41.7606
179.7	-41.8721
179.8	-41.9841
179.9	-42.0965
180	-42.2093
180.1	-42.3225
180.2	-42.4361
180.3	-42.5501
180.4	-42.6645
180.5	-42.7794
180.6	-42.8947
180.7	-43.0103
180.8	-43.1264
180.9	-43.243
181	-43.3599
181.1	-43.4773
181.2	-43.5951
181.3	-43.7134
181.4	-43.8321
181.5	-43.9512
181.6	-44.0708
181.7	-44.1908
181.8	-44.3113
181.9	-44.4322
182	-44.5536
182.1	-44.6754
182.2	-44.7977
182.3	-44.9204
182.4	-45.0436
182.5	-45.1673
182.6	-45.2914
182.7	-45.4161
182.8	-45.5411
182.9	-45.6667
183	-45.7928
183.1	-45.9193
183.2	-46.0463
183.3	-46.1739
183.4	-46.3019
183.5	-46.4304
183.6	-46.5594
183.7	-46.6889
183.8	-46.8189
183.9	-46.9495
184	-47.0805
184.1	-47.2121
184.2	-47.3442
184.3	-47.4768
184.4	-47.61
184.5	-47.7436
184.6	-47.8779
184.7	-48.0126
184.8	-48.1479
184.9	-48.2838
185	-48.4201
185.1	-48.5571
185.2	-48.6946
185.3	-48.8327
185.4	-48.9713
185.5	-49.1105
185.6	-49.2503
185.7	-49.3907
185.8	-49.5316
185.9	-49.6731
186	-49.8153
186.1	-49.958
186.2	-50.1013
186.3	-50.2452
186.4	-50.3897
186.5	-50.5348
186.6	-50.6806
186.7	-50.827
186.8	-50.974
186.9	-51.1216
187	-51.2698
187.1	-51.4187
187.2	-51.5682
187.3	-51.7184
187.4	-51.8692
187.5	-52.0207
187.6	-52.1728
187.7	-52.3256
187.8	-52.479
187.9	-52.6331
188	-52.7879
188.1	-52.9434
188.2	-53.0995
188.3	-53.2564
188.4	-53.4139
188.5	-53.5721
188.6	-53.731
188.7	-53.8906
188.8	-54.0509
188.9	-54.2119
189	-54.3736
189.1	-54.536
189.2	-54.6992
189.3	-54.863
189.4	-55.0276
189.5	-55.1929
189.6	-55.359
189.7	-55.5257
189.8	-55.6932
189.9	-55.8614
190	-56.0304
190.1	-56.2
190.2	-56.3705
190.3	-56.5416
190.4	-56.7135
190.5	-56.8862
190.6	-57.0595
190.7	-57.2337
190.8	-57.4085
190.9	-57.5841
191	-57.7604
191.1	-57.9375
191.2	-58.1153
191.3	-58.2939
191.4	-58.4732
191.5	-58.6532
191.6	-58.8339
191.7	-59.0154
191.8	-59.1976
191.9	-59.3805
192	-59.5642
192.1	-59.7485
192.2	-59.9335
192.3	-60.1193
192.4	-60.3057
192.5	-60.4928
192.6	-60.6806
192.7	-60.8691
192.8	-61.0583
192.9	-61.2481
193	-61.4385
193.1	-61.6296
193.2	-61.8213
193.3	-62.0136
193.4	-62.2065
193.5	-62.4
193.6	-62.5941
193.7	-62.7887
193.8	-62.9839
193.9	-63.1796
194	-63.3759
194.1	-63.5726
194.2	-63.7698
194.3	-63.9675
194.4	-64.1656
194.5	-64.3642
194.6	-64.5631
194.7	-64.7624
194.8	-64.9621
194.9	-65.1621
195	-65.3625
195.1	-65.5631
195.2	-65.7639
195.3	-65.965
195.4	-66.1664
195.5	-66.3678
195.6	-66.5695
195.7	-66.7712
195.8	-66.973
195.9	-67.1749
196	-67.3768
196.1	-67.5787
196.2	-67.7805
196.3	-67.9822
196.4	-68.1839
196.5	-68.3853
196.6	-68.5866
196.7	-68.7876
196.8	-68.9884
196.9	-69.1888
197	-69.3889
197.1	-69.5886
197.2	-69.7879
197.3	-69.9867
197.4	-70.185
197.5	-70.3827
197.6	-70.5799
197.7	-70.7763
197.8	-70.9721
197.9	-71.1672
198	-71.3615
198.1	-71.555
198.2	-71.7476
198.3	-71.9394
198.4	-72.1301
198.5	-72.3199
198.6	-72.5087
198.7	-72.6964
198.8	-72.883
198.9	-73.0684
199	-73.2527
199.1	-73.4357
199.2	-73.6174
199.3	-73.7979
199.4	-73.9769
199.5	-74.1546
199.6	-74.3309
199.7	-74.5057
199.8	-74.6791
199.9	-74.8509
200	-75.0211
200.1	-75.1898
200.2	-75.3568
200.3	-75.5222
200.4	-75.6859
200.5	-75.8479
200.6	-76.0082
200.7	-76.1668
200.8	-76.3236
200.9	-76.4786
201	-76.6317
201.1	-76.7831
201.2	-76.9326
201.3	-77.0802
201.4	-77.226
201.5	-77.3699
201.6	-77.5119
201.7	-77.6519
201.8	-77.7901
201.9	-77.9263
202	-78.0606
202.1	-78.193
202.2	-78.3234
202.3	-78.4519
202.4	-78.5785
202.5	-78.7031
202.6	-78.8258
202.7	-78.9465
202.8	-79.0653
202.9	-79.1822
203	-79.2972
203.1	-79.4102
203.2	-79.5214
203.3	-79.6307
203.4	-79.7381
203.5	-79.8436
203.6	-79.9472
203.7	-80.0491
203.8	-80.149
203.9	-80.2472
204	-80.3436
204.1	-80.4382
204.2	-80.531
204.3	-80.6221
204.4	-80.7114
204.5	-80.799
204.6	-80.8849
204.7	-80.9692
204.8	-81.0518
204.9	-81.1327
205	-81.2121
205.1	-81.2898
205.2	-81.366
205.3	-81.4406
205.4	-81.5137
205.5	-81.5852
205.6	-81.6553
205.7	-81.7239
205.8	-81.7911
205.9	-81.8569
206	-81.9212
206.1	-81.9842
206.2	-82.0458
206.3	-82.1061
206.4	-82.1651
206.5	-82.2227
206.6	-82.2792
206.7	-82.3343
206.8	-82.3883
206.9	-82.441
207	-82.4926
207.1	-82.543
207.2	-82.5923
207.3	-82.6405
207.4	-82.6875
207.5	-82.7335
207.6	-82.7785
207.7	-82.8224
207.8	-82.8653
207.9	-82.9072
208	-82.9481
208.1	-82.9881
208.2	-83.0272
208.3	-83.0653
208.4	-83.1026
208.5	-83.1389
208.6	-83.1745
208.7	-83.2091
208.8	-83.243
208.9	-83.2761
209	-83.3083
209.1	-83.3398
209.2	-83.3706
209.3	-83.4006
209.4	-83.4299
209.5	-83.4585
209.6	-83.4864
209.7	-83.5136
209.8	-83.5402
209.9	-83.5661
210	-83.5914
210.1	-83.6161
210.2	-83.6402
210.3	-83.6637
210.4	-83.6866
210.5	-83.709
210.6	-83.7308
210.7	-83.7521
210.8	-83.7729
210.9	-83.7931
211	-83.8129
211.1	-83.8322
211.2	-83.851
211.3	-83.8694
211.4	-83.8873
211.5	-83.9047
211.6	-83.9218
211.7	-83.9384
211.8	-83.9546
211.9	-83.9704
212	-83.9858
212.1	-84.0009
212.2	-84.0155
212.3	-84.0298
212.4	-84.0438
212.5	-84.0574
212.6	-84.0707
212.7	-84.0837
212.8	-84.0963
212.9	-84.1086
213	-84.1207
213.1	-84.1324
213.2	-84.1438
213.3	-84.155
213.4	-84.1659
213.5	-84.1765
213.6	-84.1869
213.7	-84.197
213.8	-84.2069
213.9	-84.2165
214	-84.2259
214.1	-84.2351
214.2	-84.244
214.3	-84.2527
214.4	-84.2612
214.5	-84.2695
214.6	-84.2776
214.7	-84.2856
214.8	-84.2933
214.9	-84.3008
215	-84.3082
215.1	-84.3153
215.2	-84.3224
215.3	-84.3292
215.4	-84.3359
215.5	-84.3424
215.6	-84.3488
215.7	-84.355
215.8	-84.361
215.9	-84.367
216	-84.3727
216.1	-84.3784
216.2	-84.3839
216.3	-84.3893
216.4	-84.3946
216.5	-84.3997
216.6	-84.4047
216.7	-84.4096
216.8	-84.4144
216.9	-84.4191
217	-84.4237
217.1	-84.4282
217.2	-84.4326
217.3	-84.4368
217.4	-84.441
217.5	-84.4451
217.6	-84.4491
217.7	-84.453
217.8	-84.4568
217.9	-84.4606
218	-84.4642
218.1	-84.4678
218.2	-84.4713
218.3	-84.4747
218.4	-84.4781
218.5	-84.4813
218.6	-84.4845
218.7	-84.4877
218.8	-84.4907
218.9	-84.4938
219	-84.4967
219.1	-84.4996
219.2	-84.5024
219.3	-84.5052
219.4	-84.5079
219.5	-84.5105
219.6	-84.5131
219.7	-84.5157
219.8	-84.5182
219.9	-84.5206
220	-84.523
220.1	-84.5254
220.2	-84.5277
220.3	-84.53
220.4	-84.5322
220.5	-84.5344
220.6	-84.5365
220.7	-84.5386
220.8	-84.5407
220.9	-84.5427
221	-84.5447
221.1	-84.5466
221.2	-84.5486
221.3	-84.5504
221.4	-84.5523
221.5	-84.5541
221.6	-84.5559
221.7	-84.5577
221.8	-84.5594
221.9	-84.5611
222	-84.5627
222.1	-84.5644
222.2	-84.566
222.3	-84.5676
222.4	-84.5691
222.5	-84.5707
222.6	-84.5722
222.7	-84.5737
222.8	-84.5752
222.9	-84.5766
223	-84.578
223.1	-84.5794
223.2	-84.5808
223.3	-84.5822
223.4	-84.5835
223.5	-84.5848
223.6	-84.5862
223.7	-84.5874
223.8	-84.5887
223.9	-84.59
224	-84.5912
224.1	-84.5924
224.2	-84.5936
224.3	-84.5948
224.4	-84.596
224.5	-84.5972
224.6	-84.5983
224.7	-84.5994
224.8	-84.6006
224.9	-84.6017
225	-84.6028
225.1	-84.6038
225.2	-84.6049
225.3	-84.606
225.4	-84.607
225.5	-84.608
225.6	-84.6091
225.7	-84.6101
225.8	-84.6111
225.9	-84.6121
226	-84.6131
226.1	-84.614
226.2	-84.615
226.3	-84.616
226.4	-84.6169
226.5	-84.6178
226.6	-84.6188
226.7	-84.6197
226.8	-84.6206
226.9	-84.6215
227	-84.6224
227.1	-84.6233
227.2	-84.6242
227.3	-84.625
227.4	-84.6259
227.5	-84.6268
227.6	-84.6276
227.7	-84.6285
227.8	-84.6293
227.9	-84.6302
228	-84.631
228.1	-84.6318
228.2	-84.6326
228.3	-84.6335
228.4	-84.6343
228.5	-84.6351
228.6	-84.6359
228.7	-84.6367
228.8	-84.6374
228.9	-84.6382
229	-84.639
229.1	-84.6398
229.2	-84.6406
229.3	-84.6413
229.4	-84.6421
229.5	-84.6428
229.6	-84.6436
229.7	-84.6443
229.8	-84.6451
229.9	-84.6458
230	-84.6466
230.1	-84.6473
230.2	-84.648
230.3	-84.6488
230.4	-84.6495
230.5	-84.6502
230.6	-84.6509
230.7	-84.6517
230.8	-84.6524
230.9	-84.6531
231	-84.6538
231.1	-84.6545
231.2	-84.6552
231.3	-84.6559
231.4	-84.6566
231.5	-84.6573
231.6	-84.658
231.7	-84.6587
231.8	-84.6593
231.9	-84.66
232	-84.6607
232.1	-84.6614
232.2	-84.6621
232.3	-84.6627
232.4	-84.6634
232.5	-84.6641
232.6	-84.6648
232.7	-84.6654
232.8	-84.6661
232.9	-84.6668
233	-84.6674
233.1	-84.6681
233.2	-84.6687
233.3	-84.6694
233.4	-84.67
233.5	-84.6707
233.6	-84.6713
233.7	-84.672
233.8	-84.6726
233.9	-84.6733
234	-84.6739
234.1	-84.6746
234.2	-84.6752
234.3	-84.6759
234.4	-84.6765
234.5	-84.6771
234.6	-84.6778
234.7	-84.6784
234.8	-84.679
234.9	-84.6797
235	-84.6803
235.1	-84.6809
235.2	-84.6816
235.3	-84.6822
235.4	-84.6828
235.5	-84.6834
235.6	-84.6841
235.7	-84.6847
235.8	-84.6853
235.9	-84.6859
236	-84.6865
236.1	-84.6872
236.2	-84.6878
236.3	-84.6884
236.4	-84.689
236.5	-84.6896
236.6	-84.6902
236.7	-84.6908
236.8	-84.6915
236.9	-84.6921
237	-84.6927
237.1	-84.6933
237.2	-84.6939
237.3	-84.6945
237.4	-84.6951
237.5	-84.6957
237.6	-84.6963
237.7	-84.6969
237.8	-84.6975
237.9	-84.6981
238	-84.6987
238.1	-84.6993
238.2	-84.6999
238.3	-84.7005
238.4	-84.7011
238.5	-84.7017
238.6	-84.7023
238.7	-84.7029
238.8	-84.7035
238.9	-84.7041
239	-84.7047
239.1	-84.7053
239.2	-84.7059
239.3	-84.7065
239.4	-84.7071
239.5	-84.7077
239.6	-84.7082
239.7	-84.7088
239.8	-84.7094
239.9	-84.71
240	-84.7106
240.1	-84.7112
240.2	-84.7118
240.3	-84.7123
240.4	-84.7129
240.5	-84.7135
240.6	-84.7141
240.7	-84.7147
240.8	-84.7153
240.9	-84.7158
241	-84.7164
241.1	-84.717
241.2	-84.7176
241.3	-84.7182
241.4	-84.7187
241.5	-84.7193
241.6	-84.7199
241.7	-84.7205
241.8	-84.7211
241.9	-84.7216
242	-84.7222
242.1	-84.7228
242.2	-84.7234
242.3	-84.7239
242.4	-84.7245
242.5	-84.7251
242.6	-84.7256
242.7	-84.7262
242.8	-84.7268
242.9	-84.7274
243	-84.7279
243.1	-84.7285
243.2	-84.7291
243.3	-84.7296
243.4	-84.7302
243.5	-84.7308
243.6	-84.7313
243.7	-84.7319
243.8	-84.7325
243.9	-84.733
244	-84.7336
244.1	-84.7342
244.2	-84.7347
244.3	-84.7353
244.4	-84.7359
244.5	-84.7364
244.6	-84.737
244.7	-84.7375
244.8	-84.7381
244.9	-84.7387
245	-84.7392
245.1	-84.7398
245.2	-84.7403
245.3	-84.7409
245.4	-84.7415
245.5	-84.742
245.6	-84.7426
245.7	-84.7431
245.8	-84.7437
245.9	-84.7442
246	-84.7448
246.1	-84.7454
246.2	-84.7459
246.3	-84.7465
246.4	-84.747
246.5	-84.7476
246.6	-84.7481
246.7	-84.7487
246.8	-84.7492
246.9	-84.7498
247	-84.7503
247.1	-84.7509
247.2	-84.7514
247.3	-84.752
247.4	-84.7525
247.5	-84.7531
247.6	-84.7536
247.7	-84.7542
247.8	-84.7547
247.9	-84.7553
248	-84.7558
248.1	-84.7564
248.2	-84.7569
248.3	-84.7575
248.4	-84.758
248.5	-84.7586
248.6	-84.7591
248.7	-84.7596
248.8	-84.7602
248.9	-84.7607
249	-84.7613
249.1	-84.7618
249.2	-84.7624
249.3	-84.7629
249.4	-84.7634
249.5	-84.764
249.6	-84.7645
249.7	-84.7651
249.8	-84.7656
249.9	-84.7661
250	-84.7667
250.1	-84.7672
250.2	-84.7678
250.3	-84.7683
250.4	-84.7688
250.5	-84.7694
250.6	-84.7699
250.7	-84.7705
250.8	-84.771
250.9	-84.7715
251	-84.7721
251.1	-84.7726
251.2	-84.7731
251.3	-84.7737
251.4	-84.7742
251.5	-84.7747
251.6	-84.7753
251.7	-84.7758
251.8	-84.7763
251.9	-84.7769
252	-84.7774
252.1	-84.7779
252.2	-84.7785
252.3	-84.779
252.4	-84.7795
252.5	-84.78
252.6	-84.7806
252.7	-84.7811
252.8	-84.7816
252.9	-84.7822
253	-84.7827
253.1	-84.7832
253.2	-84.7837
253.3	-84.7843
253.4	-84.7848
253.5	-84.7853
253.6	-84.7859
253.7	-84.7864
253.8	-84.7869
253.9	-84.7874
254	-84.7879
254.1	-84.7885
254.2	-84.789
254.3	-84.7895
254.4	-84.79
254.5	-84.7906
254.6	-84.7911
254.7	-84.7916
254.8	-84.7921
254.9	-84.7927
255	-84.7932
255.1	-84.7937
255.2	-84.7942
255.3	-84.7947
255.4	-84.7953
255.5	-84.7958
255.6	-84.7963
255.7	-84.7968
255.8	-84.7973
255.9	-84.7978
256	-84.7984
256.1	-84.7989
256.2	-84.7994
256.3	-84.7999
256.4	-84.8004
256.5	-84.8009
256.6	-84.8015
256.7	-84.802
256.8	-84.8025
256.9	-84.803
257	-84.8035
257.1	-84.804
257.2	-84.8045
257.3	-84.805
257.4	-84.8056
257.5	-84.8061
257.6	-84.8066
257.7	-84.8071
257.8	-84.8076
257.9	-84.8081
258	-84.8086
258.1	-84.8091
258.2	-84.8096
258.3	-84.8102
258.4	-84.8107
258.5	-84.8112
258.6	-84.8117
258.7	-84.8122
258.8	-84.8127
258.9	-84.8132
259	-84.8137
259.1	-84.8142
259.2	-84.8147
259.3	-84.8152
259.4	-84.8157
259.5	-84.8162
259.6	-84.8167
259.7	-84.8172
259.8	-84.8178
259.9	-84.8183
260	-84.8188
260.1	-84.8193
260.2	-84.8198
260.3	-84.8203
260.4	-84.8208
260.5	-84.8213
260.6	-84.8218
260.7	-84.8223
260.8	-84.8228
260.9	-84.8233
261	-84.8238
261.1	-84.8243
261.2	-84.8248
261.3	-84.8253
261.4	-84.8258
261.5	-84.8263
261.6	-84.8268
261.7	-84.8273
261.8	-84.8278
261.9	-84.8283
262	-84.8288
262.1	-84.8293
262.2	-84.8297
262.3	-84.8302
262.4	-84.8307
262.5	-84.8312
262.6	-84.8317
262.7	-84.8322
262.8	-84.8327
262.9	-84.8332
263	-84.8337
263.1	-84.8342
263.2	-84.8347
263.3	-84.8352
263.4	-84.8357
263.5	-84.8362
263.6	-84.8367
263.7	-84.8372
263.8	-84.8376
263.9	-84.8381
264	-84.8386
264.1	-84.8391
264.2	-84.8396
264.3	-84.8401
264.4	-84.8406
264.5	-84.8411
264.6	-84.8416
264.7	-84.842
264.8	-84.8425
264.9	-84.843
265	-84.8435
265.1	-84.844
265.2	-84.8445
265.3	-84.845
265.4	-84.8455
265.5	-84.8459
265.6	-84.8464
265.7	-84.8469
265.8	-84.8474
265.9	-84.8479
266	-84.8484
266.1	-84.8488
266.2	-84.8493
266.3	-84.8498
266.4	-84.8503
266.5	-84.8508
266.6	-84.8513
266.7	-84.8517
266.8	-84.8522
266.9	-84.8527
267	-84.8532
267.1	-84.8537
267.2	-84.8541
267.3	-84.8546
267.4	-84.8551
267.5	-84.8556
267.6	-84.8561
267.7	-84.8565
267.8	-84.857
267.9	-84.8575
268	-84.858
268.1	-84.8585
268.2	-84.8589
268.3	-84.8594
268.4	-84.8599
268.5	-84.8604
268.6	-84.8608
268.7	-84.8613
268.8	-84.8618
268.9	-84.8623
269	-84.8627
269.1	-84.8632
269.2	-84.8637
269.3	-84.8642
269.4	-84.8646
269.5	-84.8651
269.6	-84.8656
269.7	-84.8661
269.8	-84.8665
269.9	-84.867
270	-84.8675
270.1	-84.8679
270.2	-84.8684
270.3	-84.8689
270.4	-84.8693
270.5	-84.8698
270.6	-84.8703
270.7	-84.8708
270.8	-84.8712
270.9	-84.8717
271	-84.8722
271.1	-84.8726
271.2	-84.8731
271.3	-84.8736
271.4	-84.874
271.5	-84.8745
271.6	-84.875
271.7	-84.8754
271.8	-84.8759
271.9	-84.8764
272	-84.8768
272.1	-84.8773
272.2	-84.8778
272.3	-84.8782
272.4	-84.8787
272.5	-84.8792
272.6	-84.8796
272.7	-84.8801
272.8	-84.8806
272.9	-84.881
273	-84.8815
273.1	-84.8819
273.2	-84.8824
273.3	-84.8829
273.4	-84.8833
273.5	-84.8838
273.6	-84.8843
273.7	-84.8847
273.8	-84.8852
273.9	-84.8856
274	-84.8861
274.1	-84.8866
274.2	-84.887
274.3	-84.8875
274.4	-84.8879
274.5	-84.8884
274.6	-84.8888
274.7	-84.8893
274.8	-84.8898
274.9	-84.8902
275	-84.8907
275.1	-84.8911
275.2	-84.8916
275.3	-84.892
275.4	-84.8925
275.5	-84.893
275.6	-84.8934
275.7	-84.8939
275.8	-84.8943
275.9	-84.8948
276	-84.8952
276.1	-84.8957
276.2	-84.8961
276.3	-84.8966
276.4	-84.897
276.5	-84.8975
276.6	-84.898
276.7	-84.8984
276.8	-84.8989
276.9	-84.8993
277	-84.8998
277.1	-84.9002
277.2	-84.9007
277.3	-84.9011
277.4	-84.9016
277.5	-84.902
277.6	-84.9025
277.7	-84.9029
277.8	-84.9034
277.9	-84.9038
278	-84.9043
278.1	-84.9047
278.2	-84.9052
278.3	-84.9056
278.4	-84.906
278.5	-84.9065
278.6	-84.9069
278.7	-84.9074
278.8	-84.9078
278.9	-84.9083
279	-84.9087
279.1	-84.9092
279.2	-84.9096
279.3	-84.9101
279.4	-84.9105
279.5	-84.911
279.6	-84.9114
279.7	-84.9118
279.8	-84.9123
279.9	-84.9127
280	-84.9132
280.1	-84.9136
280.2	-84.9141
280.3	-84.9145
280.4	-84.9149
280.5	-84.9154
280.6	-84.9158
280.7	-84.9163
280.8	-84.9167
280.9	-84.9171
281	-84.9176
281.1	-84.918
281.2	-84.9185
281.3	-84.9189
281.4	-84.9193
281.5	-84.9198
281.6	-84.9202
281.7	-84.9207
281.8	-84.9211
281.9	-84.9215
282	-84.922
282.1	-84.9224
282.2	-84.9229
282.3	-84.9233
282.4	-84.9237
282.5	-84.9242
282.6	-84.9246
282.7	-84.925
282.8	-84.9255
282.9	-84.9259
283	-84.9263
283.1	-84.9268
283.2	-84.9272
283.3	-84.9276
283.4	-84.9281
283.5	-84.9285
283.6	-84.9289
283.7	-84.9294
283.8	-84.9298
283.9	-84.9302
284	-84.9307
284.1	-84.9311
284.2	-84.9315
284.3	-84.932
284.4	-84.9324
284.5	-84.9328
284.6	-84.9333
284.7	-84.9337
284.8	-84.9341
284.9	-84.9346
285	-84.935
285.1	-84.9354
285.2	-84.9358
285.3	-84.9363
285.4	-84.9367
285.5	-84.9371
285.6	-84.9376
285.7	-84.938
285.8	-84.9384
285.9	-84.9388
286	-84.9393
286.1	-84.9397
286.2	-84.9401
286.3	-84.9406
286.4	-84.941
286.5	-84.9414
286.6	-84.9418
286.7	-84.9423
286.8	-84.9427
286.9	-84.9431
287	-84.9435
287.1	-84.944
287.2	-84.9444
287.3	-84.9448
287.4	-84.9452
287.5	-84.9457
287.6	-84.9461
287.7	-84.9465
287.8	-84.9469
287.9	-84.9473
288	-84.9478
288.1	-84.9482
288.2	-84.9486
288.3	-84.949
288.4	-84.9495
288.5	-84.9499
288.6	-84.9503
288.7	-84.9507
288.8	-84.9511
288.9	-84.9516
289	-84.952
289.1	-84.9524
289.2	-84.9528
289.3	-84.9532
289.4	-84.9536
289.5	-84.9541
289.6	-84.9545
289.7	-84.9549
289.8	-84.9553
289.9	-84.9557
290	-84.9562
290.1	-84.9566
290.2	-84.957
290.3	-84.9574
290.4	-84.9578
290.5	-84.9582
290.6	-84.9587
290.7	-84.9591
290.8	-84.9595
290.9	-84.9599
291	-84.9603
291.1	-84.9607
291.2	-84.9611
291.3	-84.9616
291.4	-84.962
291.5	-84.9624
291.6	-84.9628
291.7	-84.9632
291.8	-84.9636
291.9	-84.964
292	-84.9644
292.1	-84.9649
292.2	-84.9653
292.3	-84.9657
292.4	-84.9661
292.5	-84.9665
292.6	-84.9669
292.7	-84.9673
292.8	-84.9677
292.9	-84.9681
293	-84.9686
293.1	-84.969
293.2	-84.9694
293.3	-84.9698
293.4	-84.9702
293.5	-84.9706
293.6	-84.971
293.7	-84.9714
293.8	-84.9718
293.9	-84.9722
294	-84.9726
294.1	-84.973
294.2	-84.9735
294.3	-84.9739
294.4	-84.9743
294.5	-84.9747
294.6	-84.9751
294.7	-84.9755
294.8	-84.9759
294.9	-84.9763
295	-84.9767
295.1	-84.9771
295.2	-84.9775
295.3	-84.9779
295.4	-84.9783
295.5	-84.9787
295.6	-84.9791
295.7	-84.9795
295.8	-84.9799
295.9	-84.9803
296	-84.9807
296.1	-84.9811
296.2	-84.9815
296.3	-84.9819
296.4	-84.9823
296.5	-84.9827
296.6	-84.9831
296.7	-84.9835
296.8	-84.9839
296.9	-84.9844
297	-84.9848
297.1	-84.9852
297.2	-84.9856
297.3	-84.9859
297.4	-84.9863
297.5	-84.9867
297.6	-84.9871
297.7	-84.9875
297.8	-84.9879
297.9	-84.9883
298	-84.9887
298.1	-84.9891
298.2	-84.9895
298.3	-84.9899
298.4	-84.9903
298.5	-84.9907
298.6	-84.9911
298.7	-84.9915
298.8	-84.9919
298.9	-84.9923
299	-84.9927
299.1	-84.9931
299.2	-84.9935
299.3	-84.9939
299.4	-84.9943
299.5	-84.9947
299.6	-84.9951
299.7	-84.9955
299.8	-84.9959
299.9	-84.9963
300	-84.9966
300.1	-84.997
300.2	-84.9974
300.3	-84.9978
300.4	-84.9982
300.5	-84.9986
300.6	-84.999
300.7	-84.9994
300.8	-84.9998
300.9	-85.0002
301	-85.0006
301.1	-85.001
301.2	-85.0014
301.3	-85.0017
301.4	-85.0021
301.5	-85.0025
301.6	-85.0029
301.7	-85.0033
301.8	-85.0037
301.9	-85.0041
302	-85.0045
302.1	-85.0049
302.2	-85.0052
302.3	-85.0056
302.4	-85.006
302.5	-85.0064
302.6	-85.0068
302.7	-85.0072
302.8	-85.0076
302.9	-85.008
303	-85.0083
303.1	-85.0087
303.2	-85.0091
303.3	-85.0095
303.4	-85.0099
303.5	-85.0103
303.6	-85.0107
303.7	-85.011
303.8	-85.0114
303.9	-85.0118
304	-85.0122
304.1	-85.0126
304.2	-85.013
304.3	-85.0133
304.4	-85.0137
304.5	-85.0141
304.6	-85.0145
304.7	-85.0149
304.8	-85.0153
304.9	-85.0156
305	-85.016
305.1	-85.0164
305.2	-85.0168
305.3	-85.0172
305.4	-85.0175
305.5	-85.0179
305.6	-85.0183
305.7	-85.0187
305.8	-85.0191
305.9	-85.0195
306	-85.0198
306.1	-85.0202
306.2	-85.0206
306.3	-85.021
306.4	-85.0213
306.5	-85.0217
306.6	-85.0221
306.7	-85.0225
306.8	-85.0229
306.9	-85.0232
307	-85.0236
307.1	-85.024
307.2	-85.0244
307.3	-85.0247
307.4	-85.0251
307.5	-85.0255
307.6	-85.0259
307.7	-85.0263
307.8	-85.0266
307.9	-85.027
308	-85.0274
308.1	-85.0278
308.2	-85.0281
308.3	-85.0285
308.4	-85.0289
308.5	-85.0293
308.6	-85.0296
308.7	-85.03
308.8	-85.0304
308.9	-85.0308
309	-85.0311
309.1	-85.0315
309.2	-85.0319
309.3	-85.0322
309.4	-85.0326
309.5	-85.033
309.6	-85.0334
309.7	-85.0337
309.8	-85.0341
309.9	-85.0345
310	-85.0348
310.1	-85.0352
310.2	-85.0356
310.3	-85.036
310.4	-85.0363
310.5	-85.0367
310.6	-85.0371
310.7	-85.0374
310.8	-85.0378
310.9	-85.0382
311	-85.0385
311.1	-85.0389
311.2	-85.0393
311.3	-85.0397
311.4	-85.04
311.5	-85.0404
311.6	-85.0408
311.7	-85.0411
311.8	-85.0415
311.9	-85.0419
312	-85.0422
312.1	-85.0426
312.2	-85.043
312.3	-85.0433
312.4	-85.0437
312.5	-85.0441
312.6	-85.0444
312.7	-85.0448
312.8	-85.0452
312.9	-85.0455
313	-85.0459
313.1	-85.0462
313.2	-85.0466
313.3	-85.047
313.4	-85.0473
313.5	-85.0477
313.6	-85.0481
313.7	-85.0484
313.8	-85.0488
313.9	-85.0492
314	-85.0495
314.1	-85.0499
314.2	-85.0502
314.3	-85.0506
314.4	-85.051
314.5	-85.0513
314.6	-85.0517
314.7	-85.0521
314.8	-85.0524
314.9	-85.0528
315	-85.0531
315.1	-85.0535
315.2	-85.0539
315.3	-85.0542
315.4	-85.0546
315.5	-85.0549
315.6	-85.0553
315.7	-85.0557
315.8	-85.056
315.9	-85.0564
316	-85.0567
316.1	-85.0571
316.2	-85.0574
316.3	-85.0578
316.4	-85.0582
316.5	-85.0585
316.6	-85.0589
316.7	-85.0592
316.8	-85.0596
316.9	-85.0599
317	-85.0603
317.1	-85.0607
317.2	-85.061
317.3	-85.0614
317.4	-85.0617
317.5	-85.0621
317.6	-85.0624
317.7	-85.0628
317.8	-85.0632
317.9	-85.0635
318	-85.0639
318.1	-85.0642
318.2	-85.0646
318.3	-85.0649
318.4	-85.0653
318.5	-85.0656
318.6	-85.066
318.7	-85.0663
318.8	-85.0667
318.9	-85.067
319	-85.0674
319.1	-85.0677
319.2	-85.0681
319.3	-85.0685
319.4	-85.0688
319.5	-85.0692
319.6	-85.0695
319.7	-85.0699
319.8	-85.0702
319.9	-85.0706
320	-85.0709
320.1	-85.0713
320.2	-85.0716
320.3	-85.072
320.4	-85.0723
320.5	-85.0727
320.6	-85.073
320.7	-85.0734
320.8	-85.0737
320.9	-85.0741
321	-85.0744
321.1	-85.0748
321.2	-85.0751
321.3	-85.0755
321.4	-85.0758
321.5	-85.0761
321.6	-85.0765
321.7	-85.0768
321.8	-85.0772
321.9	-85.0775
322	-85.0779
322.1	-85.0782
322.2	-85.0786
322.3	-85.0789
322.4	-85.0793
322.5	-85.0796
322.6	-85.08
322.7	-85.0803
322.8	-85.0807
322.9	-85.081
323	-85.0813
323.1	-85.0817
323.2	-85.082
323.3	-85.0824
323.4	-85.0827
323.5	-85.0831
323.6	-85.0834
323.7	-85.0837
323.8	-85.0841
323.9	-85.0844
324	-85.0848
324.1	-85.0851
324.2	-85.0855
324.3	-85.0858
324.4	-85.0861
324.5	-85.0865
324.6	-85.0868
324.7	-85.0872
324.8	-85.0875
324.9	-85.0879
325	-85.0882
325.1	-85.0885
325.2	-85.0889
325.3	-85.0892
325.4	-85.0896
325.5	-85.0899
325.6	-85.0902
325.7	-85.0906
325.8	-85.0909
325.9	-85.0913
326	-85.0916
326.1	-85.0919
326.2	-85.0923
326.3	-85.0926
326.4	-85.0929
326.5	-85.0933
326.6	-85.0936
326.7	-85.094
326.8	-85.0943
326.9	-85.0946
327	-85.095
327.1	-85.0953
327.2	-85.0956
327.3	-85.096
327.4	-85.0963
327.5	-85.0967
327.6	-85.097
327.7	-85.0973
327.8	-85.0977
327.9	-85.098
328	-85.0983
328.1	-85.0987
328.2	-85.099
328.3	-85.0993
328.4	-85.0997
328.5	-85.1
328.6	-85.1003
328.7	-85.1007
328.8	-85.101
328.9	-85.1013
329	-85.1017
329.1	-85.102
329.2	-85.1023
329.3	-85.1027
329.4	-85.103
329.5	-85.1033
329.6	-85.1037
329.7	-85.104
329.8	-85.1043
329.9	-85.1047
330	-85.105
330.1	-85.1053
330.2	-85.1057
330.3	-85.106
330.4	-85.1063
330.5	-85.1067
330.6	-85.107
330.7	-85.1073
330.8	-85.1076
330.9	-85.108
331	-85.1083
331.1	-85.1086
331.2	-85.109
331.3	-85.1093
331.4	-85.1096
331.5	-85.11
331.6	-85.1103
331.7	-85.1106
331.8	-85.1109
331.9	-85.1113
332	-85.1116
332.1	-85.1119
332.2	-85.1122
332.3	-85.1126
332.4	-85.1129
332.5	-85.1132
332.6	-85.1136
332.7	-85.1139
332.8	-85.1142
332.9	-85.1145
333	-85.1149
333.1	-85.1152
333.2	-85.1155
333.3	-85.1158
333.4	-85.1162
333.5	-85.1165
333.6	-85.1168
333.7	-85.1171
333.8	-85.1175
333.9	-85.1178
334	-85.1181
334.1	-85.1184
334.2	-85.1188
334.3	-85.1191
334.4	-85.1194
334.5	-85.1197
334.6	-85.1201
334.7	-85.1204
334.8	-85.1207
334.9	-85.121
335	-85.1213
335.1	-85.1217
335.2	-85.122
335.3	-85.1223
335.4	-85.1226
335.5	-85.123
335.6	-85.1233
335.7	-85.1236
335.8	-85.1239
335.9	-85.1242
336	-85.1246
336.1	-85.1249
336.2	-85.1252
336.3	-85.1255
336.4	-85.1258
336.5	-85.1262
336.6	-85.1265
336.7	-85.1268
336.8	-85.1271
336.9	-85.1274
337	-85.1278
337.1	-85.1281
337.2	-85.1284
337.3	-85.1287
337.4	-85.129
337.5	-85.1294
337.6	-85.1297
337.7	-85.13
337.8	-85.1303
337.9	-85.1306
338	-85.1309
338.1	-85.1313
338.2	-85.1316
338.3	-85.1319
338.4	-85.1322
338.5	-85.1325
338.6	-85.1328
338.7	-85.1332
338.8	-85.1335
338.9	-85.1338
339	-85.1341
339.1	-85.1344
339.2	-85.1347
339.3	-85.135
339.4	-85.1354
339.5	-85.1357
339.6	-85.136
339.7	-85.1363
339.8	-85.1366
339.9	-85.1369
340	-85.1372
340.1	-85.1376
340.2	-85.1379
340.3	-85.1382
340.4	-85.1385
340.5	-85.1388
340.6	-85.1391
340.7	-85.1394
340.8	-85.1397
340.9	-85.1401
341	-85.1404
341.1	-85.1407
341.2	-85.141
341.3	-85.1413
341.4	-85.1416
341.5	-85.1419
341.6	-85.1422
341.7	-85.1426
341.8	-85.1429
341.9	-85.1432
342	-85.1435
342.1	-85.1438
342.2	-85.1441
342.3	-85.1444
342.4	-85.1447
342.5	-85.145
342.6	-85.1453
342.7	-85.1457
342.8	-85.146
342.9	-85.1463
343	-85.1466
343.1	-85.1469
343.2	-85.1472
343.3	-85.1475
343.4	-85.1478
343.5	-85.1481
343.6	-85.1484
343.7	-85.1487
343.8	-85.149
343.9	-85.1493
344	-85.1497
344.1	-85.15
344.2	-85.1503
344.3	-85.1506
344.4	-85.1509
344.5	-85.1512
344.6	-85.1515
344.7	-85.1518
344.8	-85.1521
344.9	-85.1524
345	-85.1527
345.1	-85.153
345.2	-85.1533
345.3	-85.1536
345.4	-85.1539
345.5	-85.1542
345.6	-85.1545
345.7	-85.1548
345.8	-85.1552
345.9	-85.1555
346	-85.1558
346.1	-85.1561
346.2	-85.1564
346.3	-85.1567
346.4	-85.157
346.5	-85.1573
346.6	-85.1576
346.7	-85.1579
346.8	-85.1582
346.9	-85.1585
347	-85.1588
347.1	-85.1591
347.2	-85.1594
347.3	-85.1597
347.4	-85.16
347.5	-85.1603
347.6	-85.1606
347.7	-85.1609
347.8	-85.1612
347.9	-85.1615
348	-85.1618
348.1	-85.1621
348.2	-85.1624
348.3	-85.1627
348.4	-85.163
348.5	-85.1633
348.6	-85.1636
348.7	-85.1639
348.8	-85.1642
348.9	-85.1645
349	-85.1648
349.1	-85.1651
349.2	-85.1654
349.3	-85.1657
349.4	-85.166
349.5	-85.1663
349.6	-85.1666
349.7	-85.1669
349.8	-85.1672
349.9	-85.1675
350	-85.1678
350.1	-85.1681
350.2	-85.1684
350.3	-85.1687
350.4	-85.169
350.5	-85.1692
350.6	-85.1695
350.7	-85.1698
350.8	-85.1701
350.9	-85.1704
351	-85.1707
351.1	-85.171
351.2	-85.1713
351.3	-85.1716
351.4	-85.1719
351.5	-85.1722
351.6	-85.1725
351.7	-85.1728
351.8	-85.1731
351.9	-85.1734
352	-85.1737
352.1	-85.174
352.2	-85.1743
352.3	-85.1746
352.4	-85.1748
352.5	-85.1751
352.6	-85.1754
352.7	-85.1757
352.8	-85.176
352.9	-85.1763
353	-85.1766
353.1	-85.1769
353.2	-85.1772
353.3	-85.1775
353.4	-85.1778
353.5	-85.1781
353.6	-85.1784
353.7	-85.1786
353.8	-85.1789
353.9	-85.1792
354	-85.1795
354.1	-85.1798
354.2	-85.1801
354.3	-85.1804
354.4	-85.1807
354.5	-85.181
354.6	-85.1813
354.7	-85.1815
354.8	-85.1818
354.9	-85.1821
355	-85.1824
355.1	-85.1827
355.2	-85.183
355.3	-85.1833
355.4	-85.1836
355.5	-85.1839
355.6	-85.1841
355.7	-85.1844
355.8	-85.1847
355.9	-85.185
356	-85.1853
356.1	-85.1856
356.2	-85.1859
356.3	-85.1862
356.4	-85.1864
356.5	-85.1867
356.6	-85.187
356.7	-85.1873
356.8	-85.1876
356.9	-85.1879
357	-85.1882
357.1	-85.1884
357.2	-85.1887
357.3	-85.189
357.4	-85.1893
357.5	-85.1896
357.6	-85.1899
357.7	-85.1902
357.8	-85.1904
357.9	-85.1907
358	-85.191
358.1	-85.1913
358.2	-85.1916
358.3	-85.1919
358.4	-85.1922
358.5	-85.1924
358.6	-85.1927
358.7	-85.193
358.8	-85.1933
358.9	-85.1936
359	-85.1939
359.1	-85.1941
359.2	-85.1944
359.3	-85.1947
359.4	-85.195
359.5	-85.1953
359.6	-85.1955
359.7	-85.1958
359.8	-85.1961
359.9	-85.1964
360	-85.1967
360.1	-85.197
360.2	-85.1972
360.3	-85.1975
360.4	-85.1978
360.5	-85.1981
360.6	-85.1984
360.7	-85.1986
360.8	-85.1989
360.9	-85.1992
361	-85.1995
361.1	-85.1998
361.2	-85.2
361.3	-85.2003
361.4	-85.2006
361.5	-85.2009
361.6	-85.2012
361.7	-85.2014
361.8	-85.2017
361.9	-85.202
362	-85.2023
362.1	-85.2025
362.2	-85.2028
362.3	-85.2031
362.4	-85.2034
362.5	-85.2037
362.6	-85.2039
362.7	-85.2042
362.8	-85.2045
362.9	-85.2048
363	-85.205
363.1	-85.2053
363.2	-85.2056
363.3	-85.2059
363.4	-85.2061
363.5	-85.2064
363.6	-85.2067
363.7	-85.207
363.8	-85.2073
363.9	-85.2075
364	-85.2078
364.1	-85.2081
364.2	-85.2084
364.3	-85.2086
364.4	-85.2089
364.5	-85.2092
364.6	-85.2095
364.7	-85.2097
364.8	-85.21
364.9	-85.2103
365	-85.2106
365.1	-85.2108
365.2	-85.2111
365.3	-85.2114
365.4	-85.2116
365.5	-85.2119
365.6	-85.2122
365.7	-85.2125
365.8	-85.2127
365.9	-85.213
366	-85.2133
366.1	-85.2136
366.2	-85.2138
366.3	-85.2141
366.4	-85.2144
366.5	-85.2146
366.6	-85.2149
366.7	-85.2152
366.8	-85.2155
366.9	-85.2157
367	-85.216
367.1	-85.2163
367.2	-85.2165
367.3	-85.2168
367.4	-85.2171
367.5	-85.2174
367.6	-85.2176
367.7	-85.2179
367.8	-85.2182
367.9	-85.2184
368	-85.2187
368.1	-85.219
368.2	-85.2192
368.3	-85.2195
368.4	-85.2198
368.5	-85.22
368.6	-85.2203
368.7	-85.2206
368.8	-85.2209
368.9	-85.2211
369	-85.2214
369.1	-85.2217
369.2	-85.2219
369.3	-85.2222
369.4	-85.2225
369.5	-85.2227
369.6	-85.223
369.7	-85.2233
369.8	-85.2235
369.9	-85.2238
370	-85.2241
370.1	-85.2243
370.2	-85.2246
370.3	-85.2249
370.4	-85.2251
370.5	-85.2254
370.6	-85.2257
370.7	-85.2259
370.8	-85.2262
370.9	-85.2265
371	-85.2267
371.1	-85.227
371.2	-85.2273
371.3	-85.2275
371.4	-85.2278
371.5	-85.228
371.6	-85.2283
371.7	-85.2286
371.8	-85.2288
371.9	-85.2291
372	-85.2294
372.1	-85.2296
372.2	-85.2299
372.3	-85.2302
372.4	-85.2304
372.5	-85.2307
372.6	-85.2309
372.7	-85.2312
372.8	-85.2315
372.9	-85.2317
373	-85.232
373.1	-85.2323
373.2	-85.2325
373.3	-85.2328
373.4	-85.233
373.5	-85.2333
373.6	-85.2336
373.7	-85.2338
373.8	-85.2341
373.9	-85.2344
374	-85.2346
374.1	-85.2349
374.2	-85.2351
374.3	-85.2354
374.4	-85.2357
374.5	-85.2359
374.6	-85.2362
374.7	-85.2364
374.8	-85.2367
374.9	-85.237
375	-85.2372
375.1	-85.2375
375.2	-85.2377
375.3	-85.238
375.4	-85.2383
375.5	-85.2385
375.6	-85.2388
375.7	-85.239
375.8	-85.2393
375.9	-85.2396
376	-85.2398
376.1	-85.2401
376.2	-85.2403
376.3	-85.2406
376.4	-85.2408
376.5	-85.2411
376.6	-85.2414
376.7	-85.2416
376.8	-85.2419
376.9	-85.2421
377	-85.2424
377.1	-85.2426
377.2	-85.2429
377.3	-85.2432
377.4	-85.2434
377.5	-85.2437
377.6	-85.2439
377.7	-85.2442
377.8	-85.2444
377.9	-85.2447
378	-85.2449
378.1	-85.2452
378.2	-85.2455
378.3	-85.2457
378.4	-85.246
378.5	-85.2462
378.6	-85.2465
378.7	-85.2467
378.8	-85.247
378.9	-85.2472
379	-85.2475
379.1	-85.2478
379.2	-85.248
379.3	-85.2483
379.4	-85.2485
379.5	-85.2488
379.6	-85.249
379.7	-85.2493
379.8	-85.2495
379.9	-85.2498
380	-85.25
380.1	-85.2503
380.2	-85.2505
380.3	-85.2508
380.4	-85.251
380.5	-85.2513
380.6	-85.2515
380.7	-85.2518
380.8	-85.2521
380.9	-85.2523
381	-85.2526
381.1	-85.2528
381.2	-85.2531
381.3	-85.2533
381.4	-85.2536
381.5	-85.2538
381.6	-85.2541
381.7	-85.2543
381.8	-85.2546
381.9	-85.2548
382	-85.2551
382.1	-85.2553
382.2	-85.2556
382.3	-85.2558
382.4	-85.2561
382.5	-85.2563
382.6	-85.2566
382.7	-85.2568
382.8	-85.2571
382.9	-85.2573
383	-85.2576
383.1	-85.2578
383.2	-85.2581
383.3	-85.2583
383.4	-85.2586
383.5	-85.2588
383.6	-85.2591
383.7	-85.2593
383.8	-85.2595
383.9	-85.2598
384	-85.26
384.1	-85.2603
384.2	-85.2605
384.3	-85.2608
384.4	-85.261
384.5	-85.2613
384.6	-85.2615
384.7	-85.2618
384.8	-85.262
384.9	-85.2623
385	-85.2625
385.1	-85.2628
385.2	-85.263
385.3	-85.2633
385.4	-85.2635
385.5	-85.2637
385.6	-85.264
385.7	-85.2642
385.8	-85.2645
385.9	-85.2647
386	-85.265
386.1	-85.2652
386.2	-85.2655
386.3	-85.2657
386.4	-85.2659
386.5	-85.2662
386.6	-85.2664
386.7	-85.2667
386.8	-85.2669
386.9	-85.2672
387	-85.2674
387.1	-85.2677
387.2	-85.2679
387.3	-85.2681
387.4	-85.2684
387.5	-85.2686
387.6	-85.2689
387.7	-85.2691
387.8	-85.2694
387.9	-85.2696
388	-85.2698
388.1	-85.2701
388.2	-85.2703
388.3	-85.2706
388.4	-85.2708
388.5	-85.2711
388.6	-85.2713
388.7	-85.2715
388.8	-85.2718
388.9	-85.272
389	-85.2723
389.1	-85.2725
389.2	-85.2727
389.3	-85.273
389.4	-85.2732
389.5	-85.2735
389.6	-85.2737
389.7	-85.2739
389.8	-85.2742
389.9	-85.2744
390	-85.2747
390.1	-85.2749
390.2	-85.2751
390.3	-85.2754
390.4	-85.2756
390.5	-85.2759
390.6	-85.2761
390.7	-85.2763
390.8	-85.2766
390.9	-85.2768
391	-85.2771
391.1	-85.2773
391.2	-85.2775
391.3	-85.2778
391.4	-85.278
391.5	-85.2783
391.6	-85.2785
391.7	-85.2787
391.8	-85.279
391.9	-85.2792
392	-85.2794
392.1	-85.2797
392.2	-85.2799
392.3	-85.2802
392.4	-85.2804
392.5	-85.2806
392.6	-85.2809
392.7	-85.2811
392.8	-85.2813
392.9	-85.2816
393	-85.2818
393.1	-85.282
393.2	-85.2823
393.3	-85.2825
393.4	-85.2828
393.5	-85.283
393.6	-85.2832
393.7	-85.2835
393.8	-85.2837
393.9	-85.2839
394	-85.2842
394.1	-85.2844
394.2	-85.2846
394.3	-85.2849
394.4	-85.2851
394.5	-85.2853
394.6	-85.2856
394.7	-85.2858
394.8	-85.286
394.9	-85.2863
395	-85.2865
395.1	-85.2867
395.2	-85.287
395.3	-85.2872
395.4	-85.2874
395.5	-85.2877
395.6	-85.2879
395.7	-85.2881
395.8	-85.2884
395.9	-85.2886
396	-85.2888
396.1	-85.2891
396.2	-85.2893
396.3	-85.2895
396.4	-85.2898
396.5	-85.29
396.6	-85.2902
396.7	-85.2905
396.8	-85.2907
396.9	-85.2909
397	-85.2912
397.1	-85.2914
397.2	-85.2916
397.3	-85.2919
397.4	-85.2921
397.5	-85.2923
397.6	-85.2926
397.7	-85.2928
397.8	-85.293
397.9	-85.2932
398	-85.2935
398.1	-85.2937
398.2	-85.2939
398.3	-85.2942
398.4	-85.2944
398.5	-85.2946
398.6	-85.2949
398.7	-85.2951
398.8	-85.2953
398.9	-85.2955
399	-85.2958
399.1	-85.296
399.2	-85.2962
399.3	-85.2965
399.4	-85.2967
399.5	-85.2969
399.6	-85.2971
399.7	-85.2974
399.8	-85.2976
399.9	-85.2978
400	-85.2981
400.1	-85.2983
400.2	-85.2985
400.3	-85.2987
400.4	-85.299
400.5	-85.2992
400.6	-85.2994
400.7	-85.2996
400.8	-85.2999
400.9	-85.3001
401	-85.3003
401.1	-85.3006
401.2	-85.3008
401.3	-85.301
401.4	-85.3012
401.5	-85.3015
401.6	-85.3017
401.7	-85.3019
401.8	-85.3021
401.9	-85.3024
402	-85.3026
402.1	-85.3028
402.2	-85.303
402.3	-85.3033
402.4	-85.3035
402.5	-85.3037
402.6	-85.3039
402.7	-85.3042
402.8	-85.3044
402.9	-85.3046
403	-85.3048
403.1	-85.3051
403.2	-85.3053
403.3	-85.3055
403.4	-85.3057
403.5	-85.306
403.6	-85.3062
403.7	-85.3064
403.8	-85.3066
403.9	-85.3068
404	-85.3071
404.1	-85.3073
404.2	-85.3075
404.3	-85.3077
404.4	-85.308
404.5	-85.3082
404.6	-85.3084
404.7	-85.3086
404.8	-85.3089
404.9	-85.3091
405	-85.3093
405.1	-85.3095
405.2	-85.3097
405.3	-85.31
405.4	-85.3102
405.5	-85.3104
405.6	-85.3106
405.7	-85.3108
405.8	-85.3111
405.9	-85.3113
406	-85.3115
406.1	-85.3117
406.2	-85.312
406.3	-85.3122
406.4	-85.3124
406.5	-85.3126
406.6	-85.3128
406.7	-85.3131
406.8	-85.3133
406.9	-85.3135
407	-85.3137
407.1	-85.3139
407.2	-85.3142
407.3	-85.3144
407.4	-85.3146
407.5	-85.3148
407.6	-85.315
407.7	-85.3152
407.8	-85.3155
407.9	-85.3157
408	-85.3159
408.1	-85.3161
408.2	-85.3163
408.3	-85.3166
408.4	-85.3168
408.5	-85.317
408.6	-85.3172
408.7	-85.3174
408.8	-85.3176
408.9	-85.3179
409	-85.3181
409.1	-85.3183
409.2	-85.3185
409.3	-85.3187
409.4	-85.319
409.5	-85.3192
409.6	-85.3194
409.7	-85.3196
409.8	-85.3198
409.9	-85.32
410	-85.3203
410.1	-85.3205
410.2	-85.3207
410.3	-85.3209
410.4	-85.3211
410.5	-85.3213
410.6	-85.3215
410.7	-85.3218
410.8	-85.322
410.9	-85.3222
411	-85.3224
411.1	-85.3226
411.2	-85.3228
411.3	-85.3231
411.4	-85.3233
411.5	-85.3235
411.6	-85.3237
411.7	-85.3239
411.8	-85.3241
411.9	-85.3243
412	-85.3246
412.1	-85.3248
412.2	-85.325
412.3	-85.3252
412.4	-85.3254
412.5	-85.3256
412.6	-85.3258
412.7	-85.3261
412.8	-85.3263
412.9	-85.3265
413	-85.3267
413.1	-85.3269
413.2	-85.3271
413.3	-85.3273
413.4	-85.3275
413.5	-85.3278
413.6	-85.328
413.7	-85.3282
413.8	-85.3284
413.9	-85.3286
414	-85.3288
414.1	-85.329
414.2	-85.3292
414.3	-85.3295
414.4	-85.3297
414.5	-85.3299
414.6	-85.3301
414.7	-85.3303
414.8	-85.3305
414.9	-85.3307
415	-85.3309
415.1	-85.3311
415.2	-85.3314
415.3	-85.3316
415.4	-85.3318
415.5	-85.332
415.6	-85.3322
415.7	-85.3324
415.8	-85.3326
415.9	-85.3328
416	-85.333
416.1	-85.3332
416.2	-85.3335
416.3	-85.3337
416.4	-85.3339
416.5	-85.3341
416.6	-85.3343
416.7	-85.3345
416.8	-85.3347
416.9	-85.3349
417	-85.3351
417.1	-85.3353
417.2	-85.3355
417.3	-85.3358
417.4	-85.336
417.5	-85.3362
417.6	-85.3364
417.7	-85.3366
417.8	-85.3368
417.9	-85.337
418	-85.3372
418.1	-85.3374
418.2	-85.3376
418.3	-85.3378
418.4	-85.338
418.5	-85.3382
418.6	-85.3385
418.7	-85.3387
418.8	-85.3389
418.9	-85.3391
419	-85.3393
419.1	-85.3395
419.2	-85.3397
419.3	-85.3399
419.4	-85.3401
419.5	-85.3403
419.6	-85.3405
419.7	-85.3407
419.8	-85.3409
419.9	-85.3411
420	-85.3413
420.1	-85.3415
420.2	-85.3418
420.3	-85.342
420.4	-85.3422
420.5	-85.3424
420.6	-85.3426
420.7	-85.3428
420.8	-85.343
420.9	-85.3432
421	-85.3434
421.1	-85.3436
421.2	-85.3438
421.3	-85.344
421.4	-85.3442
421.5	-85.3444
421.6	-85.3446
421.7	-85.3448
421.8	-85.345
421.9	-85.3452
422	-85.3454
422.1	-85.3456
422.2	-85.3458
422.3	-85.346
422.4	-85.3462
422.5	-85.3464
422.6	-85.3466
422.7	-85.3469
422.8	-85.3471
422.9	-85.3473
423	-85.3475
423.1	-85.3477
423.2	-85.3479
423.3	-85.3481
423.4	-85.3483
423.5	-85.3485
423.6	-85.3487
423.7	-85.3489
423.8	-85.3491
423.9	-85.3493
424	-85.3495
424.1	-85.3497
424.2	-85.3499
424.3	-85.3501
424.4	-85.3503
424.5	-85.3505
424.6	-85.3507
424.7	-85.3509
424.8	-85.3511
424.9	-85.3513
425	-85.3515
425.1	-85.3517
425.2	-85.3519
425.3	-85.3521
425.4	-85.3523
425.5	-85.3525
425.6	-85.3527
425.7	-85.3529
425.8	-85.3531
425.9	-85.3533
426	-85.3535
426.1	-85.3537
426.2	-85.3539
426.3	-85.3541
426.4	-85.3543
426.5	-85.3545
426.6	-85.3547
426.7	-85.3549
426.8	-85.3551
426.9	-85.3553
427	-85.3555
427.1	-85.3557
427.2	-85.3559
427.3	-85.3561
427.4	-85.3563
427.5	-85.3565
427.6	-85.3567
427.7	-85.3569
427.8	-85.3571
427.9	-85.3573
428	-85.3575
428.1	-85.3576
428.2	-85.3578
428.3	-85.358
428.4	-85.3582
428.5	-85.3584
428.6	-85.3586
428.7	-85.3588
428.8	-85.359
428.9	-85.3592
429	-85.3594
429.1	-85.3596
429.2	-85.3598
429.3	-85.36
429.4	-85.3602
429.5	-85.3604
429.6	-85.3606
429.7	-85.3608
429.8	-85.361
429.9	-85.3612
430	-85.3614
430.1	-85.3616
430.2	-85.3618
430.3	-85.362
430.4	-85.3622
430.5	-85.3624
430.6	-85.3625
430.7	-85.3627
430.8	-85.3629
430.9	-85.3631
431	-85.3633
431.1	-85.3635
431.2	-85.3637
431.3	-85.3639
431.4	-85.3641
431.5	-85.3643
431.6	-85.3645
431.7	-85.3647
431.8	-85.3649
431.9	-85.3651
432	-85.3653
432.1	-85.3655
432.2	-85.3657
432.3	-85.3658
432.4	-85.366
432.5	-85.3662
432.6	-85.3664
432.7	-85.3666
432.8	-85.3668
432.9	-85.367
433	-85.3672
433.1	-85.3674
433.2	-85.3676
433.3	-85.3678
433.4	-85.368
433.5	-85.3682
433.6	-85.3683
433.7	-85.3685
433.8	-85.3687
433.9	-85.3689
434	-85.3691
434.1	-85.3693
434.2	-85.3695
434.3	-85.3697
434.4	-85.3699
434.5	-85.3701
434.6	-85.3703
434.7	-85.3705
434.8	-85.3706
434.9	-85.3708
435	-85.371
435.1	-85.3712
435.2	-85.3714
435.3	-85.3716
435.4	-85.3718
435.5	-85.372
435.6	-85.3722
435.7	-85.3724
435.8	-85.3725
435.9	-85.3727
436	-85.3729
436.1	-85.3731
436.2	-85.3733
436.3	-85.3735
436.4	-85.3737
436.5	-85.3739
436.6	-85.3741
436.7	-85.3742
436.8	-85.3744
436.9	-85.3746
437	-85.3748
437.1	-85.375
437.2	-85.3752
437.3	-85.3754
437.4	-85.3756
437.5	-85.3758
437.6	-85.3759
437.7	-85.3761
437.8	-85.3763
437.9	-85.3765
438	-85.3767
438.1	-85.3769
438.2	-85.3771
438.3	-85.3773
438.4	-85.3774
438.5	-85.3776
438.6	-85.3778
438.7	-85.378
438.8	-85.3782
438.9	-85.3784
439	-85.3786
439.1	-85.3788
439.2	-85.3789
439.3	-85.3791
439.4	-85.3793
439.5	-85.3795
439.6	-85.3797
439.7	-85.3799
439.8	-85.3801
439.9	-85.3802
440	-85.3804
440.1	-85.3806
440.2	-85.3808
440.3	-85.381
440.4	-85.3812
440.5	-85.3814
440.6	-85.3815
440.7	-85.3817
440.8	-85.3819
440.9	-85.3821
441	-85.3823
441.1	-85.3825
441.2	-85.3827
441.3	-85.3828
441.4	-85.383
441.5	-85.3832
441.6	-85.3834
441.7	-85.3836
441.8	-85.3838
441.9	-85.3839
442	-85.3841
442.1	-85.3843
442.2	-85.3845
442.3	-85.3847
442.4	-85.3849
442.5	-85.385
442.6	-85.3852
442.7	-85.3854
442.8	-85.3856
442.9	-85.3858
443	-85.386
443.1	-85.3861
443.2	-85.3863
443.3	-85.3865
443.4	-85.3867
443.5	-85.3869
443.6	-85.3871
443.7	-85.3872
443.8	-85.3874
443.9	-85.3876
444	-85.3878
444.1	-85.388
444.2	-85.3881
444.3	-85.3883
444.4	-85.3885
444.5	-85.3887
444.6	-85.3889
444.7	-85.3891
444.8	-85.3892
444.9	-85.3894
445	-85.3896
445.1	-85.3898
445.2	-85.39
445.3	-85.3901
445.4	-85.3903
445.5	-85.3905
445.6	-85.3907
445.7	-85.3909
445.8	-85.391
445.9	-85.3912
446	-85.3914
446.1	-85.3916
446.2	-85.3918
446.3	-85.3919
446.4	-85.3921
446.5	-85.3923
446.6	-85.3925
446.7	-85.3927
446.8	-85.3928
446.9	-85.393
447	-85.3932
447.1	-85.3934
447.2	-85.3936
447.3	-85.3937
447.4	-85.3939
447.5	-85.3941
447.6	-85.3943
447.7	-85.3945
447.8	-85.3946
447.9	-85.3948
448	-85.395
448.1	-85.3952
448.2	-85.3954
448.3	-85.3955
448.4	-85.3957
448.5	-85.3959
448.6	-85.3961
448.7	-85.3962
448.8	-85.3964
448.9	-85.3966
449	-85.3968
449.1	-85.397
449.2	-85.3971
449.3	-85.3973
449.4	-85.3975
449.5	-85.3977
449.6	-85.3978
449.7	-85.398
449.8	-85.3982
449.9	-85.3984
450	-85.3985
450.1	-85.3987
450.2	-85.3989
450.3	-85.3991
450.4	-85.3993
450.5	-85.3994
450.6	-85.3996
450.7	-85.3998
450.8	-85.4
450.9	-85.4001
451	-85.4003
451.1	-85.4005
451.2	-85.4007
451.3	-85.4008
451.4	-85.401
451.5	-85.4012
451.6	-85.4014
451.7	-85.4015
451.8	-85.4017
451.9	-85.4019
452	-85.4021
452.1	-85.4022
452.2	-85.4024
452.3	-85.4026
452.4	-85.4028
452.5	-85.4029
452.6	-85.4031
452.7	-85.4033
452.8	-85.4035
452.9	-85.4036
453	-85.4038
453.1	-85.404
453.2	-85.4042
453.3	-85.4043
453.4	-85.4045
453.5	-85.4047
453.6	-85.4049
453.7	-85.405
453.8	-85.4052
453.9	-85.4054
454	-85.4055
454.1	-85.4057
454.2	-85.4059
454.3	-85.4061
454.4	-85.4062
454.5	-85.4064
454.6	-85.4066
454.7	-85.4068
454.8	-85.4069
454.9	-85.4071
455	-85.4073
455.1	-85.4074
455.2	-85.4076
455.3	-85.4078
455.4	-85.408
455.5	-85.4081
455.6	-85.4083
455.7	-85.4085
455.8	-85.4086
455.9	-85.4088
456	-85.409
456.1	-85.4092
456.2	-85.4093
456.3	-85.4095
456.4	-85.4097
456.5	-85.4098
456.6	-85.41
456.7	-85.4102
456.8	-85.4104
456.9	-85.4105
457	-85.4107
457.1	-85.4109
457.2	-85.411
457.3	-85.4112
457.4	-85.4114
457.5	-85.4116
457.6	-85.4117
457.7	-85.4119
457.8	-85.4121
457.9	-85.4122
458	-85.4124
458.1	-85.4126
458.2	-85.4127
458.3	-85.4129
458.4	-85.4131
458.5	-85.4133
458.6	-85.4134
458.7	-85.4136
458.8	-85.4138
458.9	-85.4139
459	-85.4141
459.1	-85.4143
459.2	-85.4144
459.3	-85.4146
459.4	-85.4148
459.5	-85.4149
459.6	-85.4151
459.7	-85.4153
459.8	-85.4154
459.9	-85.4156
460	-85.4158
460.1	-85.416
460.2	-85.4161
460.3	-85.4163
460.4	-85.4165
460.5	-85.4166
460.6	-85.4168
460.7	-85.417
460.8	-85.4171
460.9	-85.4173
461	-85.4175
461.1	-85.4176
461.2	-85.4178
461.3	-85.418
461.4	-85.4181
461.5	-85.4183
461.6	-85.4185
461.7	-85.4186
461.8	-85.4188
461.9	-85.419
462	-85.4191
462.1	-85.4193
462.2	-85.4195
462.3	-85.4196
462.4	-85.4198
462.5	-85.42
462.6	-85.4201
462.7	-85.4203
462.8	-85.4205
462.9	-85.4206
463	-85.4208
463.1	-85.421
463.2	-85.4211
463.3	-85.4213
463.4	-85.4215
463.5	-85.4216
463.6	-85.4218
463.7	-85.4219
463.8	-85.4221
463.9	-85.4223
464	-85.4224
464.1	-85.4226
464.2	-85.4228
464.3	-85.4229
464.4	-85.4231
464.5	-85.4233
464.6	-85.4234
464.7	-85.4236
464.8	-85.4238
464.9	-85.4239
465	-85.4241
465.1	-85.4242
465.2	-85.4244
465.3	-85.4246
465.4	-85.4247
465.5	-85.4249
465.6	-85.4251
465.7	-85.4252
465.8	-85.4254
465.9	-85.4256
466	-85.4257
466.1	-85.4259
466.2	-85.426
466.3	-85.4262
466.4	-85.4264
466.5	-85.4265
466.6	-85.4267
466.7	-85.4269
466.8	-85.427
466.9	-85.4272
467	-85.4273
467.1	-85.4275
467.2	-85.4277
467.3	-85.4278
467.4	-85.428
467.5	-85.4282
467.6	-85.4283
467.7	-85.4285
467.8	-85.4286
467.9	-85.4288
468	-85.429
468.1	-85.4291
468.2	-85.4293
468.3	-85.4295
468.4	-85.4296
468.5	-85.4298
468.6	-85.4299
468.7	-85.4301
468.8	-85.4303
468.9	-85.4304
469	-85.4306
469.1	-85.4307
469.2	-85.4309
469.3	-85.4311
469.4	-85.4312
469.5	-85.4314
469.6	-85.4315
469.7	-85.4317
469.8	-85.4319
469.9	-85.432
470	-85.4322
470.1	-85.4323
470.2	-85.4325
470.3	-85.4327
470.4	-85.4328
470.5	-85.433
470.6	-85.4331
470.7	-85.4333
470.8	-85.4335
470.9	-85.4336
471	-85.4338
471.1	-85.4339
471.2	-85.4341
471.3	-85.4343
471.4	-85.4344
471.5	-85.4346
471.6	-85.4347
471.7	-85.4349
471.8	-85.4351
471.9	-85.4352
472	-85.4354
472.1	-85.4355
472.2	-85.4357
472.3	-85.4358
472.4	-85.436
472.5	-85.4362
472.6	-85.4363
472.7	-85.4365
472.8	-85.4366
472.9	-85.4368
473	-85.437
473.1	-85.4371
473.2	-85.4373
473.3	-85.4374
473.4	-85.4376
473.5	-85.4377
473.6	-85.4379
473.7	-85.4381
473.8	-85.4382
473.9	-85.4384
474	-85.4385
474.1	-85.4387
474.2	-85.4388
474.3	-85.439
474.4	-85.4392
474.5	-85.4393
474.6	-85.4395
474.7	-85.4396
474.8	-85.4398
474.9	-85.4399
475	-85.4401
475.1	-85.4402
475.2	-85.4404
475.3	-85.4406
475.4	-85.4407
475.5	-85.4409
475.6	-85.441
475.7	-85.4412
475.8	-85.4413
475.9	-85.4415
476	-85.4416
476.1	-85.4418
476.2	-85.442
476.3	-85.4421
476.4	-85.4423
476.5	-85.4424
476.6	-85.4426
476.7	-85.4427
476.8	-85.4429
476.9	-85.443
477	-85.4432
477.1	-85.4434
477.2	-85.4435
477.3	-85.4437
477.4	-85.4438
477.5	-85.444
477.6	-85.4441
477.7	-85.4443
477.8	-85.4444
477.9	-85.4446
478	-85.4447
478.1	-85.4449
478.2	-85.445
478.3	-85.4452
478.4	-85.4454
478.5	-85.4455
478.6	-85.4457
478.7	-85.4458
478.8	-85.446
478.9	-85.4461
479	-85.4463
479.1	-85.4464
479.2	-85.4466
479.3	-85.4467
479.4	-85.4469
479.5	-85.447
479.6	-85.4472
479.7	-85.4473
479.8	-85.4475
479.9	-85.4476
480	-85.4478
480.1	-85.448
480.2	-85.4481
480.3	-85.4483
480.4	-85.4484
480.5	-85.4486
480.6	-85.4487
480.7	-85.4489
480.8	-85.449
480.9	-85.4492
481	-85.4493
481.1	-85.4495
481.2	-85.4496
481.3	-85.4498
481.4	-85.4499
481.5	-85.4501
481.6	-85.4502
481.7	-85.4504
481.8	-85.4505
481.9	-85.4507
482	-85.4508
482.1	-85.451
482.2	-85.4511
482.3	-85.4513
482.4	-85.4514
482.5	-85.4516
482.6	-85.4517
482.7	-85.4519
482.8	-85.452
482.9	-85.4522
483	-85.4523
483.1	-85.4525
483.2	-85.4526
483.3	-85.4528
483.4	-85.4529
483.5	-85.4531
483.6	-85.4532
483.7	-85.4534
483.8	-85.4535
483.9	-85.4537
484	-85.4538
484.1	-85.454
484.2	-85.4541
484.3	-85.4543
484.4	-85.4544
484.5	-85.4546
484.6	-85.4547
484.7	-85.4549
484.8	-85.455
484.9	-85.4552
485	-85.4553
485.1	-85.4555
485.2	-85.4556
485.3	-85.4558
485.4	-85.4559
485.5	-85.4561
485.6	-85.4562
485.7	-85.4564
485.8	-85.4565
485.9	-85.4567
486	-85.4568
486.1	-85.457
486.2	-85.4571
486.3	-85.4573
486.4	-85.4574
486.5	-85.4575
486.6	-85.4577
486.7	-85.4578
486.8	-85.458
486.9	-85.4581
487	-85.4583
487.1	-85.4584
487.2	-85.4586
487.3	-85.4587
487.4	-85.4589
487.5	-85.459
487.6	-85.4592
487.7	-85.4593
487.8	-85.4595
487.9	-85.4596
488	-85.4598
488.1	-85.4599
488.2	-85.46
488.3	-85.4602
488.4	-85.4603
488.5	-85.4605
488.6	-85.4606
488.7	-85.4608
488.8	-85.4609
488.9	-85.4611
489	-85.4612
489.1	-85.4614
489.2	-85.4615
489.3	-85.4617
489.4	-85.4618
489.5	-85.4619
489.6	-85.4621
489.7	-85.4622
489.8	-85.4624
489.9	-85.4625
490	-85.4627
490.1	-85.4628
490.2	-85.463
490.3	-85.4631
490.4	-85.4633
490.5	-85.4634
490.6	-85.4635
490.7	-85.4637
490.8	-85.4638
490.9	-85.464
491	-85.4641
491.1	-85.4643
491.2	-85.4644
491.3	-85.4646
491.4	-85.4647
491.5	-85.4648
491.6	-85.465
491.7	-85.4651
491.8	-85.4653
491.9	-85.4654
492	-85.4656
492.1	-85.4657
492.2	-85.4658
492.3	-85.466
492.4	-85.4661
492.5	-85.4663
492.6	-85.4664
492.7	-85.4666
492.8	-85.4667
492.9	-85.4669
493	-85.467
493.1	-85.4671
493.2	-85.4673
493.3	-85.4674
493.4	-85.4676
493.5	-85.4677
493.6	-85.4679
493.7	-85.468
493.8	-85.4681
493.9	-85.4683
494	-85.4684
494.1	-85.4686
494.2	-85.4687
494.3	-85.4688
494.4	-85.469
494.5	-85.4691
494.6	-85.4693
494.7	-85.4694
494.8	-85.4696
494.9	-85.4697
495	-85.4698
495.1	-85.47
495.2	-85.4701
495.3	-85.4703
495.4	-85.4704
495.5	-85.4705
495.6	-85.4707
495.7	-85.4708
495.8	-85.471
495.9	-85.4711
496	-85.4713
496.1	-85.4714
496.2	-85.4715
496.3	-85.4717
496.4	-85.4718
496.5	-85.472
496.6	-85.4721
496.7	-85.4722
496.8	-85.4724
496.9	-85.4725
497	-85.4727
497.1	-85.4728
497.2	-85.4729
497.3	-85.4731
497.4	-85.4732
497.5	-85.4734
497.6	-85.4735
497.7	-85.4736
497.8	-85.4738
497.9	-85.4739
498	-85.4741
498.1	-85.4742
498.2	-85.4743
498.3	-85.4745
498.4	-85.4746
498.5	-85.4748
498.6	-85.4749
498.7	-85.475
498.8	-85.4752
498.9	-85.4753
499	-85.4755
499.1	-85.4756
499.2	-85.4757
499.3	-85.4759
499.4	-85.476
499.5	-85.4761
499.6	-85.4763
499.7	-85.4764
499.8	-85.4766
499.9	-85.4767
500	-85.4768
500.1	-85.477
500.2	-85.4771
500.3	-85.4773
500.4	-85.4774
500.5	-85.4775
500.6	-85.4777
500.7	-85.4778
500.8	-85.4779
500.9	-85.4781
501	-85.4782
501.1	-85.4784
501.2	-85.4785
501.3	-85.4786
501.4	-85.4788
501.5	-85.4789
501.6	-85.479
501.7	-85.4792
501.8	-85.4793
501.9	-85.4795
502	-85.4796
502.1	-85.4797
502.2	-85.4799
502.3	-85.48
502.4	-85.4801
502.5	-85.4803
502.6	-85.4804
502.7	-85.4805
502.8	-85.4807
502.9	-85.4808
503	-85.481
503.1	-85.4811
503.2	-85.4812
503.3	-85.4814
503.4	-85.4815
503.5	-85.4816
503.6	-85.4818
503.7	-85.4819
503.8	-85.482
503.9	-85.4822
504	-85.4823
504.1	-85.4825
504.2	-85.4826
504.3	-85.4827
504.4	-85.4829
504.5	-85.483
504.6	-85.4831
504.7	-85.4833
504.8	-85.4834
504.9	-85.4835
505	-85.4837
505.1	-85.4838
505.2	-85.4839
505.3	-85.4841
505.4	-85.4842
505.5	-85.4843
505.6	-85.4845
505.7	-85.4846
505.8	-85.4847
505.9	-85.4849
506	-85.485
506.1	-85.4852
506.2	-85.4853
506.3	-85.4854
506.4	-85.4856
506.5	-85.4857
506.6	-85.4858
506.7	-85.486
506.8	-85.4861
506.9	-85.4862
507	-85.4864
507.1	-85.4865
507.2	-85.4866
507.3	-85.4868
507.4	-85.4869
507.5	-85.487
507.6	-85.4872
507.7	-85.4873
507.8	-85.4874
507.9	-85.4876
508	-85.4877
508.1	-85.4878
508.2	-85.488
508.3	-85.4881
508.4	-85.4882
508.5	-85.4884
508.6	-85.4885
508.7	-85.4886
508.8	-85.4888
508.9	-85.4889
509	-85.489
509.1	-85.4892
509.2	-85.4893
509.3	-85.4894
509.4	-85.4895
509.5	-85.4897
509.6	-85.4898
509.7	-85.4899
509.8	-85.4901
509.9	-85.4902
510	-85.4903
510.1	-85.4905
510.2	-85.4906
510.3	-85.4907
510.4	-85.4909
510.5	-85.491
510.6	-85.4911
510.7	-85.4913
510.8	-85.4914
510.9	-85.4915
511	-85.4917
511.1	-85.4918
511.2	-85.4919
511.3	-85.492
511.4	-85.4922
511.5	-85.4923
511.6	-85.4924
511.7	-85.4926
511.8	-85.4927
511.9	-85.4928
512	-85.493
512.1	-85.4931
512.2	-85.4932
512.3	-85.4934
512.4	-85.4935
512.5	-85.4936
512.6	-85.4937
512.7	-85.4939
512.8	-85.494
512.9	-85.4941
513	-85.4943
513.1	-85.4944
513.2	-85.4945
513.3	-85.4947
513.4	-85.4948
513.5	-85.4949
513.6	-85.495
513.7	-85.4952
513.8	-85.4953
513.9	-85.4954
514	-85.4956
514.1	-85.4957
514.2	-85.4958
514.3	-85.4959
514.4	-85.4961
514.5	-85.4962
514.6	-85.4963
514.7	-85.4965
514.8	-85.4966
514.9	-85.4967
515	-85.4968
515.1	-85.497
515.2	-85.4971
515.3	-85.4972
515.4	-85.4974
515.5	-85.4975
515.6	-85.4976
515.7	-85.4977
515.8	-85.4979
515.9	-85.498
516	-85.4981
516.1	-85.4983
516.2	-85.4984
516.3	-85.4985
516.4	-85.4986
516.5	-85.4988
516.6	-85.4989
516.7	-85.499
516.8	-85.4992
516.9	-85.4993
517	-85.4994
517.1	-85.4995
517.2	-85.4997
517.3	-85.4998
517.4	-85.4999
517.5	-85.5
517.6	-85.5002
517.7	-85.5003
517.8	-85.5004
517.9	-85.5006
518	-85.5007
518.1	-85.5008
518.2	-85.5009
518.3	-85.5011
518.4	-85.5012
518.5	-85.5013
518.6	-85.5014
518.7	-85.5016
518.8	-85.5017
518.9	-85.5018
519	-85.5019
519.1	-85.5021
519.2	-85.5022
519.3	-85.5023
519.4	-85.5025
519.5	-85.5026
519.6	-85.5027
519.7	-85.5028
519.8	-85.503
519.9	-85.5031
520	-85.5032
520.1	-85.5033
520.2	-85.5035
520.3	-85.5036
520.4	-85.5037
520.5	-85.5038
520.6	-85.504
520.7	-85.5041
520.8	-85.5042
520.9	-85.5043
521	-85.5045
521.1	-85.5046
521.2	-85.5047
521.3	-85.5048
521.4	-85.505
521.5	-85.5051
521.6	-85.5052
521.7	-85.5053
521.8	-85.5055
521.9	-85.5056
522	-85.5057
522.1	-85.5058
522.2	-85.506
522.3	-85.5061
522.4	-85.5062
522.5	-85.5063
522.6	-85.5065
522.7	-85.5066
522.8	-85.5067
522.9	-85.5068
523	-85.5069
523.1	-85.5071
523.2	-85.5072
523.3	-85.5073
523.4	-85.5074
523.5	-85.5076
523.6	-85.5077
523.7	-85.5078
523.8	-85.5079
523.9	-85.5081
524	-85.5082
524.1	-85.5083
524.2	-85.5084
524.3	-85.5086
524.4	-85.5087
524.5	-85.5088
524.6	-85.5089
524.7	-85.509
524.8	-85.5092
524.9	-85.5093
525	-85.5094
525.1	-85.5095
525.2	-85.5097
525.3	-85.5098
525.4	-85.5099
525.5	-85.51
525.6	-85.5101
525.7	-85.5103
525.8	-85.5104
525.9	-85.5105
526	-85.5106
526.1	-85.5108
526.2	-85.5109
526.3	-85.511
526.4	-85.5111
526.5	-85.5112
526.6	-85.5114
526.7	-85.5115
526.8	-85.5116
526.9	-85.5117
527	-85.5119
527.1	-85.512
527.2	-85.5121
527.3	-85.5122
527.4	-85.5123
527.5	-85.5125
527.6	-85.5126
527.7	-85.5127
527.8	-85.5128
527.9	-85.5129
528	-85.5131
528.1	-85.5132
528.2	-85.5133
528.3	-85.5134
528.4	-85.5136
528.5	-85.5137
528.6	-85.5138
528.7	-85.5139
528.8	-85.514
528.9	-85.5142
529	-85.5143
529.1	-85.5144
529.2	-85.5145
529.3	-85.5146
529.4	-85.5148
529.5	-85.5149
529.6	-85.515
529.7	-85.5151
529.8	-85.5152
529.9	-85.5154
530	-85.5155
530.1	-85.5156
530.2	-85.5157
530.3	-85.5158
530.4	-85.516
530.5	-85.5161
530.6	-85.5162
530.7	-85.5163
530.8	-85.5164
530.9	-85.5166
531	-85.5167
531.1	-85.5168
531.2	-85.5169
531.3	-85.517
531.4	-85.5171
531.5	-85.5173
531.6	-85.5174
531.7	-85.5175
531.8	-85.5176
531.9	-85.5177
532	-85.5179
532.1	-85.518
532.2	-85.5181
532.3	-85.5182
532.4	-85.5183
532.5	-85.5185
532.6	-85.5186
532.7	-85.5187
532.8	-85.5188
532.9	-85.5189
533	-85.519
533.1	-85.5192
533.2	-85.5193
533.3	-85.5194
533.4	-85.5195
533.5	-85.5196
533.6	-85.5198
533.7	-85.5199
533.8	-85.52
533.9	-85.5201
534	-85.5202
534.1	-85.5203
534.2	-85.5205
534.3	-85.5206
534.4	-85.5207
534.5	-85.5208
534.6	-85.5209
534.7	-85.521
534.8	-85.5212
534.9	-85.5213
535	-85.5214
535.1	-85.5215
535.2	-85.5216
535.3	-85.5217
535.4	-85.5219
535.5	-85.522
535.6	-85.5221
535.7	-85.5222
535.8	-85.5223
535.9	-85.5224
536	-85.5226
536.1	-85.5227
536.2	-85.5228
536.3	-85.5229
536.4	-85.523
536.5	-85.5231
536.6	-85.5233
536.7	-85.5234
536.8	-85.5235
536.9	-85.5236
537	-85.5237
537.1	-85.5238
537.2	-85.524
537.3	-85.5241
537.4	-85.5242
537.5	-85.5243
537.6	-85.5244
537.7	-85.5245
537.8	-85.5246
537.9	-85.5248
538	-85.5249
538.1	-85.525
538.2	-85.5251
538.3	-85.5252
538.4	-85.5253
538.5	-85.5255
538.6	-85.5256
538.7	-85.5257
538.8	-85.5258
538.9	-85.5259
539	-85.526
539.1	-85.5261
539.2	-85.5263
539.3	-85.5264
539.4	-85.5265
539.5	-85.5266
539.6	-85.5267
539.7	-85.5268
539.8	-85.5269
539.9	-85.5271
540	-85.5272
540.1	-85.5273
540.2	-85.5274
540.3	-85.5275
540.4	-85.5276
540.5	-85.5277
540.6	-85.5279
540.7	-85.528
540.8	-85.5281
540.9	-85.5282
541	-85.5283
541.1	-85.5284
541.2	-85.5285
541.3	-85.5287
541.4	-85.5288
541.5	-85.5289
541.6	-85.529
541.7	-85.5291
541.8	-85.5292
541.9	-85.5293
542	-85.5294
542.1	-85.5296
542.2	-85.5297
542.3	-85.5298
542.4	-85.5299
542.5	-85.53
542.6	-85.5301
542.7	-85.5302
542.8	-85.5304
542.9	-85.5305
543	-85.5306
543.1	-85.5307
543.2	-85.5308
543.3	-85.5309
543.4	-85.531
543.5	-85.5311
543.6	-85.5313
543.7	-85.5314
543.8	-85.5315
543.9	-85.5316
544	-85.5317
544.1	-85.5318
544.2	-85.5319
544.3	-85.532
544.4	-85.5322
544.5	-85.5323
544.6	-85.5324
544.7	-85.5325
544.8	-85.5326
544.9	-85.5327
545	-85.5328
545.1	-85.5329
545.2	-85.533
545.3	-85.5332
545.4	-85.5333
545.5	-85.5334
545.6	-85.5335
545.7	-85.5336
545.8	-85.5337
545.9	-85.5338
546	-85.5339
546.1	-85.534
546.2	-85.5342
546.3	-85.5343
546.4	-85.5344
546.5	-85.5345
546.6	-85.5346
546.7	-85.5347
546.8	-85.5348
546.9	-85.5349
547	-85.535
547.1	-85.5352
547.2	-85.5353
547.3	-85.5354
547.4	-85.5355
547.5	-85.5356
547.6	-85.5357
547.7	-85.5358
547.8	-85.5359
547.9	-85.536
548	-85.5361
548.1	-85.5363
548.2	-85.5364
548.3	-85.5365
548.4	-85.5366
548.5	-85.5367
548.6	-85.5368
548.7	-85.5369
548.8	-85.537
548.9	-85.5371
549	-85.5372
549.1	-85.5374
549.2	-85.5375
549.3	-85.5376
549.4	-85.5377
549.5	-85.5378
549.6	-85.5379
549.7	-85.538
549.8	-85.5381
549.9	-85.5382
550	-85.5383
550.1	-85.5384
550.2	-85.5386
550.3	-85.5387
550.4	-85.5388
550.5	-85.5389
550.6	-85.539
550.7	-85.5391
550.8	-85.5392
550.9	-85.5393
551	-85.5394
551.1	-85.5395
551.2	-85.5396
551.3	-85.5397
551.4	-85.5399
551.5	-85.54
551.6	-85.5401
551.7	-85.5402
551.8	-85.5403
551.9	-85.5404
552	-85.5405
552.1	-85.5406
552.2	-85.5407
552.3	-85.5408
552.4	-85.5409
552.5	-85.541
552.6	-85.5412
552.7	-85.5413
552.8	-85.5414
552.9	-85.5415
553	-85.5416
553.1	-85.5417
553.2	-85.5418
553.3	-85.5419
553.4	-85.542
553.5	-85.5421
553.6	-85.5422
553.7	-85.5423
553.8	-85.5424
553.9	-85.5425
554	-85.5427
554.1	-85.5428
554.2	-85.5429
554.3	-85.543
554.4	-85.5431
554.5	-85.5432
554.6	-85.5433
554.7	-85.5434
554.8	-85.5435
554.9	-85.5436
555	-85.5437
555.1	-85.5438
555.2	-85.5439
555.3	-85.544
555.4	-85.5441
555.5	-85.5443
555.6	-85.5444
555.7	-85.5445
555.8	-85.5446
555.9	-85.5447
556	-85.5448
556.1	-85.5449
556.2	-85.545
556.3	-85.5451
556.4	-85.5452
556.5	-85.5453
556.6	-85.5454
556.7	-85.5455
556.8	-85.5456
556.9	-85.5457
557	-85.5458
557.1	-85.5459
557.2	-85.5461
557.3	-85.5462
557.4	-85.5463
557.5	-85.5464
557.6	-85.5465
557.7	-85.5466
557.8	-85.5467
557.9	-85.5468
558	-85.5469
558.1	-85.547
558.2	-85.5471
558.3	-85.5472
558.4	-85.5473
558.5	-85.5474
558.6	-85.5475
558.7	-85.5476
558.8	-85.5477
558.9	-85.5478
559	-85.5479
559.1	-85.548
559.2	-85.5482
559.3	-85.5483
559.4	-85.5484
559.5	-85.5485
559.6	-85.5486
559.7	-85.5487
559.8	-85.5488
559.9	-85.5489
560	-85.549
560.1	-85.5491
560.2	-85.5492
560.3	-85.5493
560.4	-85.5494
560.5	-85.5495
560.6	-85.5496
560.7	-85.5497
560.8	-85.5498
560.9	-85.5499
561	-85.55
561.1	-85.5501
561.2	-85.5502
561.3	-85.5503
561.4	-85.5504
561.5	-85.5505
561.6	-85.5506
561.7	-85.5507
561.8	-85.5509
561.9	-85.551
562	-85.5511
562.1	-85.5512
562.2	-85.5513
562.3	-85.5514
562.4	-85.5515
562.5	-85.5516
562.6	-85.5517
562.7	-85.5518
562.8	-85.5519
562.9	-85.552
563	-85.5521
563.1	-85.5522
563.2	-85.5523
563.3	-85.5524
563.4	-85.5525
563.5	-85.5526
563.6	-85.5527
563.7	-85.5528
563.8	-85.5529
563.9	-85.553
564	-85.5531
564.1	-85.5532
564.2	-85.5533
564.3	-85.5534
564.4	-85.5535
564.5	-85.5536
564.6	-85.5537
564.7	-85.5538
564.8	-85.5539
564.9	-85.554
565	-85.5541
565.1	-85.5542
565.2	-85.5543
565.3	-85.5544
565.4	-85.5545
565.5	-85.5546
565.6	-85.5547
565.7	-85.5548
565.8	-85.5549
565.9	-85.555
566	-85.5551
566.1	-85.5552
566.2	-85.5553
566.3	-85.5554
566.4	-85.5555
566.5	-85.5556
566.6	-85.5557
566.7	-85.5558
566.8	-85.556
566.9	-85.5561
567	-85.5562
567.1	-85.5563
567.2	-85.5564
567.3	-85.5565
567.4	-85.5566
567.5	-85.5567
567.6	-85.5568
567.7	-85.5569
567.8	-85.557
567.9	-85.5571
568	-85.5572
568.1	-85.5573
568.2	-85.5574
568.3	-85.5575
568.4	-85.5576
568.5	-85.5577
568.6	-85.5578
568.7	-85.5579
568.8	-85.558
568.9	-85.5581
569	-85.5582
569.1	-85.5583
569.2	-85.5584
569.3	-85.5585
569.4	-85.5586
569.5	-85.5587
569.6	-85.5588
569.7	-85.5589
569.8	-85.559
569.9	-85.5591
570	-85.5592
570.1	-85.5593
570.2	-85.5594
570.3	-85.5594
570.4	-85.5595
570.5	-85.5596
570.6	-85.5597
570.7	-85.5598
570.8	-85.5599
570.9	-85.56
571	-85.5601
571.1	-85.5602
571.2	-85.5603
571.3	-85.5604
571.4	-85.5605
571.5	-85.5606
571.6	-85.5607
571.7	-85.5608
571.8	-85.5609
571.9	-85.561
572	-85.5611
572.1	-85.5612
572.2	-85.5613
572.3	-85.5614
572.4	-85.5615
572.5	-85.5616
572.6	-85.5617
572.7	-85.5618
572.8	-85.5619
572.9	-85.562
573	-85.5621
573.1	-85.5622
573.2	-85.5623
573.3	-85.5624
573.4	-85.5625
573.5	-85.5626
573.6	-85.5627
573.7	-85.5628
573.8	-85.5629
573.9	-85.563
574	-85.5631
574.1	-85.5632
574.2	-85.5633
574.3	-85.5634
574.4	-85.5635
574.5	-85.5636
574.6	-85.5637
574.7	-85.5638
574.8	-85.5639
574.9	-85.564
575	-85.5641
575.1	-85.5642
575.2	-85.5643
575.3	-85.5644
575.4	-85.5644
575.5	-85.5645
575.6	-85.5646
575.7	-85.5647
575.8	-85.5648
575.9	-85.5649
576	-85.565
576.1	-85.5651
576.2	-85.5652
576.3	-85.5653
576.4	-85.5654
576.5	-85.5655
576.6	-85.5656
576.7	-85.5657
576.8	-85.5658
576.9	-85.5659
577	-85.566
577.1	-85.5661
577.2	-85.5662
577.3	-85.5663
577.4	-85.5664
577.5	-85.5665
577.6	-85.5666
577.7	-85.5667
577.8	-85.5668
577.9	-85.5669
578	-85.567
578.1	-85.567
578.2	-85.5671
578.3	-85.5672
578.4	-85.5673
578.5	-85.5674
578.6	-85.5675
578.7	-85.5676
578.8	-85.5677
578.9	-85.5678
579	-85.5679
579.1	-85.568
579.2	-85.5681
579.3	-85.5682
579.4	-85.5683
579.5	-85.5684
579.6	-85.5685
579.7	-85.5686
579.8	-85.5687
579.9	-85.5688
580	-85.5689
580.1	-85.569
580.2	-85.569
580.3	-85.5691
580.4	-85.5692
580.5	-85.5693
580.6	-85.5694
580.7	-85.5695
580.8	-85.5696
580.9	-85.5697
581	-85.5698
581.1	-85.5699
581.2	-85.57
581.3	-85.5701
581.4	-85.5702
581.5	-85.5703
581.6	-85.5704
581.7	-85.5705
581.8	-85.5706
581.9	-85.5706
582	-85.5707
582.1	-85.5708
582.2	-85.5709
582.3	-85.571
582.4	-85.5711
582.5	-85.5712
582.6	-85.5713
582.7	-85.5714
582.8	-85.5715
582.9	-85.5716
583	-85.5717
583.1	-85.5718
583.2	-85.5719
583.3	-85.572
583.4	-85.5721
583.5	-85.5721
583.6	-85.5722
583.7	-85.5723
583.8	-85.5724
583.9	-85.5725
584	-85.5726
584.1	-85.5727
584.2	-85.5728
584.3	-85.5729
584.4	-85.573
584.5	-85.5731
584.6	-85.5732
584.7	-85.5733
584.8	-85.5734
584.9	-85.5735
585	-85.5735
585.1	-85.5736
585.2	-85.5737
585.3	-85.5738
585.4	-85.5739
585.5	-85.574
585.6	-85.5741
585.7	-85.5742
585.8	-85.5743
585.9	-85.5744
586	-85.5745
586.1	-85.5746
586.2	-85.5747
586.3	-85.5747
586.4	-85.5748
586.5	-85.5749
586.6	-85.575
586.7	-85.5751
586.8	-85.5752
586.9	-85.5753
587	-85.5754
587.1	-85.5755
587.2	-85.5756
587.3	-85.5757
587.4	-85.5758
587.5	-85.5758
587.6	-85.5759
587.7	-85.576
587.8	-85.5761
587.9	-85.5762
588	-85.5763
588.1	-85.5764
588.2	-85.5765
588.3	-85.5766
588.4	-85.5767
588.5	-85.5768
588.6	-85.5769
588.7	-85.5769
588.8	-85.577
588.9	-85.5771
589	-85.5772
589.1	-85.5773
589.2	-85.5774
589.3	-85.5775
589.4	-85.5776
589.5	-85.5777
589.6	-85.5778
589.7	-85.5779
589.8	-85.5779
589.9	-85.578
590	-85.5781
590.1	-85.5782
590.2	-85.5783
590.3	-85.5784
590.4	-85.5785
590.5	-85.5786
590.6	-85.5787
590.7	-85.5788
590.8	-85.5788
590.9	-85.5789
591	-85.579
591.1	-85.5791
591.2	-85.5792
591.3	-85.5793
591.4	-85.5794
591.5	-85.5795
591.6	-85.5796
591.7	-85.5797
591.8	-85.5797
591.9	-85.5798
592	-85.5799
592.1	-85.58
592.2	-85.5801
592.3	-85.5802
592.4	-85.5803
592.5	-85.5804
592.6	-85.5805
592.7	-85.5806
592.8	-85.5806
592.9	-85.5807
593	-85.5808
593.1	-85.5809
593.2	-85.581
593.3	-85.5811
593.4	-85.5812
593.5	-85.5813
593.6	-85.5814
593.7	-85.5814
593.8	-85.5815
593.9	-85.5816
594	-85.5817
594.1	-85.5818
594.2	-85.5819
594.3	-85.582
594.4	-85.5821
594.5	-85.5822
594.6	-85.5822
594.7	-85.5823
594.8	-85.5824
594.9	-85.5825
595	-85.5826
595.1	-85.5827
595.2	-85.5828
595.3	-85.5829
595.4	-85.583
595.5	-85.583
595.6	-85.5831
595.7	-85.5832
595.8	-85.5833
595.9	-85.5834
596	-85.5835
596.1	-85.5836
596.2	-85.5837
596.3	-85.5837
596.4	-85.5838
596.5	-85.5839
596.6	-85.584
596.7	-85.5841
596.8	-85.5842
596.9	-85.5843
597	-85.5844
597.1	-85.5844
597.2	-85.5845
597.3	-85.5846
597.4	-85.5847
597.5	-85.5848
597.6	-85.5849
597.7	-85.585
597.8	-85.5851
597.9	-85.5851
598	-85.5852
598.1	-85.5853
598.2	-85.5854
598.3	-85.5855
598.4	-85.5856
598.5	-85.5857
598.6	-85.5858
598.7	-85.5858
598.8	-85.5859
598.9	-85.586
599	-85.5861
599.1	-85.5862
599.2	-85.5863
599.3	-85.5864
599.4	-85.5865
599.5	-85.5865
599.6	-85.5866
599.7	-85.5867
599.8	-85.5868
599.9	-85.5869
600	-85.587
600.1	-85.5871
600.2	-85.5871
600.3	-85.5872
600.4	-85.5873
600.5	-85.5874
600.6	-85.5875
600.7	-85.5876
600.8	-85.5877
600.9	-85.5877
601	-85.5878
601.1	-85.5879
601.2	-85.588
601.3	-85.5881
601.4	-85.5882
601.5	-85.5883
601.6	-85.5884
601.7	-85.5884
601.8	-85.5885
601.9	-85.5886
602	-85.5887
602.1	-85.5888
602.2	-85.5889
602.3	-85.589
602.4	-85.589
602.5	-85.5891
602.6	-85.5892
602.7	-85.5893
602.8	-85.5894
602.9	-85.5895
603	-85.5895
603.1	-85.5896
603.2	-85.5897
603.3	-85.5898
603.4	-85.5899
603.5	-85.59
603.6	-85.5901
603.7	-85.5901
603.8	-85.5902
603.9	-85.5903
604	-85.5904
604.1	-85.5905
604.2	-85.5906
604.3	-85.5907
604.4	-85.5907
604.5	-85.5908
604.6	-85.5909
604.7	-85.591
604.8	-85.5911
604.9	-85.5912
605	-85.5912
605.1	-85.5913
605.2	-85.5914
605.3	-85.5915
605.4	-85.5916
605.5	-85.5917
605.6	-85.5918
605.7	-85.5918
605.8	-85.5919
605.9	-85.592
606	-85.5921
606.1	-85.5922
606.2	-85.5923
606.3	-85.5923
606.4	-85.5924
606.5	-85.5925
606.6	-85.5926
606.7	-85.5927
606.8	-85.5928
606.9	-85.5928
607	-85.5929
607.1	-85.593
607.2	-85.5931
607.3	-85.5932
607.4	-85.5933
607.5	-85.5933
607.6	-85.5934
607.7	-85.5935
607.8	-85.5936
607.9	-85.5937
608	-85.5938
608.1	-85.5939
608.2	-85.5939
608.3	-85.594
608.4	-85.5941
608.5	-85.5942
608.6	-85.5943
608.7	-85.5943
608.8	-85.5944
608.9	-85.5945
609	-85.5946
609.1	-85.5947
609.2	-85.5948
609.3	-85.5948
609.4	-85.5949
609.5	-85.595
609.6	-85.5951
609.7	-85.5952
609.8	-85.5953
609.9	-85.5953
610	-85.5954
610.1	-85.5955
610.2	-85.5956
610.3	-85.5957
610.4	-85.5958
610.5	-85.5958
610.6	-85.5959
610.7	-85.596
610.8	-85.5961
610.9	-85.5962
611	-85.5963
611.1	-85.5963
611.2	-85.5964
611.3	-85.5965
611.4	-85.5966
611.5	-85.5967
611.6	-85.5967
611.7	-85.5968
611.8	-85.5969
611.9	-85.597
612	-85.5971
612.1	-85.5972
612.2	-85.5972
612.3	-85.5973
612.4	-85.5974
612.5	-85.5975
612.6	-85.5976
612.7	-85.5976
612.8	-85.5977
612.9	-85.5978
613	-85.5979
613.1	-85.598
613.2	-85.5981
613.3	-85.5981
613.4	-85.5982
613.5	-85.5983
613.6	-85.5984
613.7	-85.5985
613.8	-85.5985
613.9	-85.5986
614	-85.5987
614.1	-85.5988
614.2	-85.5989
614.3	-85.5989
614.4	-85.599
614.5	-85.5991
614.6	-85.5992
614.7	-85.5993
614.8	-85.5994
614.9	-85.5994
615	-85.5995
615.1	-85.5996
615.2	-85.5997
615.3	-85.5998
615.4	-85.5998
615.5	-85.5999
615.6	-85.6
615.7	-85.6001
615.8	-85.6002
615.9	-85.6002
616	-85.6003
616.1	-85.6004
616.2	-85.6005
616.3	-85.6006
616.4	-85.6006
616.5	-85.6007
616.6	-85.6008
616.7	-85.6009
616.8	-85.601
616.9	-85.601
617	-85.6011
617.1	-85.6012
617.2	-85.6013
617.3	-85.6014
617.4	-85.6014
617.5	-85.6015
617.6	-85.6016
617.7	-85.6017
617.8	-85.6018
617.9	-85.6018
618	-85.6019
618.1	-85.602
618.2	-85.6021
618.3	-85.6022
618.4	-85.6022
618.5	-85.6023
618.6	-85.6024
618.7	-85.6025
618.8	-85.6026
618.9	-85.6026
619	-85.6027
619.1	-85.6028
619.2	-85.6029
619.3	-85.603
619.4	-85.603
619.5	-85.6031
619.6	-85.6032
619.7	-85.6033
619.8	-85.6033
619.9	-85.6034
620	-85.6035
620.1	-85.6036
620.2	-85.6037
620.3	-85.6037
620.4	-85.6038
620.5	-85.6039
620.6	-85.604
620.7	-85.6041
620.8	-85.6041
620.9	-85.6042
621	-85.6043
621.1	-85.6044
621.2	-85.6044
621.3	-85.6045
621.4	-85.6046
621.5	-85.6047
621.6	-85.6048
621.7	-85.6048
621.8	-85.6049
621.9	-85.605
622	-85.6051
622.1	-85.6052
622.2	-85.6052
622.3	-85.6053
622.4	-85.6054
622.5	-85.6055
622.6	-85.6055
622.7	-85.6056
622.8	-85.6057
622.9	-85.6058
623	-85.6059
623.1	-85.6059
623.2	-85.606
623.3	-85.6061
623.4	-85.6062
623.5	-85.6062
623.6	-85.6063
623.7	-85.6064
623.8	-85.6065
623.9	-85.6066
624	-85.6066
624.1	-85.6067
624.2	-85.6068
624.3	-85.6069
624.4	-85.6069
624.5	-85.607
624.6	-85.6071
624.7	-85.6072
624.8	-85.6073
624.9	-85.6073
625	-85.6074
625.1	-85.6075
625.2	-85.6076
625.3	-85.6076
625.4	-85.6077
625.5	-85.6078
625.6	-85.6079
625.7	-85.6079
625.8	-85.608
625.9	-85.6081
626	-85.6082
626.1	-85.6083
626.2	-85.6083
626.3	-85.6084
626.4	-85.6085
626.5	-85.6086
626.6	-85.6086
626.7	-85.6087
626.8	-85.6088
626.9	-85.6089
627	-85.6089
627.1	-85.609
627.2	-85.6091
627.3	-85.6092
627.4	-85.6093
627.5	-85.6093
627.6	-85.6094
627.7	-85.6095
627.8	-85.6096
627.9	-85.6096
628	-85.6097
628.1	-85.6098
628.2	-85.6099
628.3	-85.6099
628.4	-85.61
628.5	-85.6101
628.6	-85.6102
628.7	-85.6102
628.8	-85.6103
628.9	-85.6104
629	-85.6105
629.1	-85.6105
629.2	-85.6106
629.3	-85.6107
629.4	-85.6108
629.5	-85.6108
629.6	-85.6109
629.7	-85.611
629.8	-85.6111
629.9	-85.6111
630	-85.6112
630.1	-85.6113
630.2	-85.6114
630.3	-85.6115
630.4	-85.6115
630.5	-85.6116
630.6	-85.6117
630.7	-85.6118
630.8	-85.6118
630.9	-85.6119
631	-85.612
631.1	-85.6121
631.2	-85.6121
631.3	-85.6122
631.4	-85.6123
631.5	-85.6124
631.6	-85.6124
631.7	-85.6125
631.8	-85.6126
631.9	-85.6127
632	-85.6127
632.1	-85.6128
632.2	-85.6129
632.3	-85.613
632.4	-85.613
632.5	-85.6131
632.6	-85.6132
632.7	-85.6132
632.8	-85.6133
632.9	-85.6134
633	-85.6135
633.1	-85.6135
633.2	-85.6136
633.3	-85.6137
633.4	-85.6138
633.5	-85.6138
633.6	-85.6139
633.7	-85.614
633.8	-85.6141
633.9	-85.6141
634	-85.6142
634.1	-85.6143
634.2	-85.6144
634.3	-85.6144
634.4	-85.6145
634.5	-85.6146
634.6	-85.6147
634.7	-85.6147
634.8	-85.6148
634.9	-85.6149
635	-85.615
635.1	-85.615
635.2	-85.6151
635.3	-85.6152
635.4	-85.6153
635.5	-85.6153
635.6	-85.6154
635.7	-85.6155
635.8	-85.6155
635.9	-85.6156
636	-85.6157
636.1	-85.6158
636.2	-85.6158
636.3	-85.6159
636.4	-85.616
636.5	-85.6161
636.6	-85.6161
636.7	-85.6162
636.8	-85.6163
636.9	-85.6164
637	-85.6164
637.1	-85.6165
637.2	-85.6166
637.3	-85.6166
637.4	-85.6167
637.5	-85.6168
637.6	-85.6169
637.7	-85.6169
637.8	-85.617
637.9	-85.6171
638	-85.6172
638.1	-85.6172
638.2	-85.6173
638.3	-85.6174
638.4	-85.6174
638.5	-85.6175
638.6	-85.6176
638.7	-85.6177
638.8	-85.6177
638.9	-85.6178
639	-85.6179
639.1	-85.618
639.2	-85.618
639.3	-85.6181
639.4	-85.6182
639.5	-85.6182
639.6	-85.6183
639.7	-85.6184
639.8	-85.6185
639.9	-85.6185
640	-85.6186
640.1	-85.6187
640.2	-85.6187
640.3	-85.6188
640.4	-85.6189
640.5	-85.619
640.6	-85.619
640.7	-85.6191
640.8	-85.6192
640.9	-85.6193
641	-85.6193
641.1	-85.6194
641.2	-85.6195
641.3	-85.6195
641.4	-85.6196
641.5	-85.6197
641.6	-85.6198
641.7	-85.6198
641.8	-85.6199
641.9	-85.62
642	-85.62
642.1	-85.6201
642.2	-85.6202
642.3	-85.6203
642.4	-85.6203
642.5	-85.6204
642.6	-85.6205
642.7	-85.6205
642.8	-85.6206
642.9	-85.6207
643	-85.6208
643.1	-85.6208
643.2	-85.6209
643.3	-85.621
643.4	-85.621
643.5	-85.6211
643.6	-85.6212
643.7	-85.6213
643.8	-85.6213
643.9	-85.6214
644	-85.6215
644.1	-85.6215
644.2	-85.6216
644.3	-85.6217
644.4	-85.6217
644.5	-85.6218
644.6	-85.6219
644.7	-85.622
644.8	-85.622
644.9	-85.6221
645	-85.6222
645.1	-85.6222
645.2	-85.6223
645.3	-85.6224
645.4	-85.6225
645.5	-85.6225
645.6	-85.6226
645.7	-85.6227
645.8	-85.6227
645.9	-85.6228
646	-85.6229
646.1	-85.6229
646.2	-85.623
646.3	-85.6231
646.4	-85.6232
646.5	-85.6232
646.6	-85.6233
646.7	-85.6234
646.8	-85.6234
646.9	-85.6235
647	-85.6236
647.1	-85.6236
647.2	-85.6237
647.3	-85.6238
647.4	-85.6239
647.5	-85.6239
647.6	-85.624
647.7	-85.6241
647.8	-85.6241
647.9	-85.6242
648	-85.6243
648.1	-85.6243
648.2	-85.6244
648.3	-85.6245
648.4	-85.6246
648.5	-85.6246
648.6	-85.6247
648.7	-85.6248
648.8	-85.6248
648.9	-85.6249
649	-85.625
649.1	-85.625
649.2	-85.6251
649.3	-85.6252
649.4	-85.6252
649.5	-85.6253
649.6	-85.6254
649.7	-85.6255
649.8	-85.6255
649.9	-85.6256
650	-85.6257
650.1	-85.6257
650.2	-85.6258
650.3	-85.6259
650.4	-85.6259
650.5	-85.626
650.6	-85.6261
650.7	-85.6261
650.8	-85.6262
650.9	-85.6263
651	-85.6263
651.1	-85.6264
651.2	-85.6265
651.3	-85.6266
651.4	-85.6266
651.5	-85.6267
651.6	-85.6268
651.7	-85.6268
651.8	-85.6269
651.9	-85.627
652	-85.627
652.1	-85.6271
652.2	-85.6272
652.3	-85.6272
652.4	-85.6273
652.5	-85.6274
652.6	-85.6274
652.7	-85.6275
652.8	-85.6276
652.9	-85.6276
653	-85.6277
653.1	-85.6278
653.2	-85.6278
653.3	-85.6279
653.4	-85.628
653.5	-85.6281
653.6	-85.6281
653.7	-85.6282
653.8	-85.6283
653.9	-85.6283
654	-85.6284
654.1	-85.6285
654.2	-85.6285
654.3	-85.6286
654.4	-85.6287
654.5	-85.6287
654.6	-85.6288
654.7	-85.6289
654.8	-85.6289
654.9	-85.629
655	-85.6291
655.1	-85.6291
655.2	-85.6292
655.3	-85.6293
655.4	-85.6293
655.5	-85.6294
655.6	-85.6295
655.7	-85.6295
655.8	-85.6296
655.9	-85.6297
656	-85.6297
656.1	-85.6298
656.2	-85.6299
656.3	-85.6299
656.4	-85.63
656.5	-85.6301
656.6	-85.6301
656.7	-85.6302
656.8	-85.6303
656.9	-85.6303
657	-85.6304
657.1	-85.6305
657.2	-85.6305
657.3	-85.6306
657.4	-85.6307
657.5	-85.6307
657.6	-85.6308
657.7	-85.6309
657.8	-85.6309
657.9	-85.631
658	-85.6311
658.1	-85.6311
658.2	-85.6312
658.3	-85.6313
658.4	-85.6313
658.5	-85.6314
658.6	-85.6315
658.7	-85.6315
658.8	-85.6316
658.9	-85.6317
659	-85.6317
659.1	-85.6318
659.2	-85.6319
659.3	-85.6319
659.4	-85.632
659.5	-85.6321
659.6	-85.6321
659.7	-85.6322
659.8	-85.6323
659.9	-85.6323
660	-85.6324
660.1	-85.6325
660.2	-85.6325
660.3	-85.6326
660.4	-85.6327
660.5	-85.6327
660.6	-85.6328
660.7	-85.6329
660.8	-85.6329
660.9	-85.633
661	-85.6331
661.1	-85.6331
661.2	-85.6332
661.3	-85.6333
661.4	-85.6333
661.5	-85.6334
661.6	-85.6335
661.7	-85.6335
661.8	-85.6336
661.9	-85.6337
662	-85.6337
662.1	-85.6338
662.2	-85.6338
662.3	-85.6339
662.4	-85.634
662.5	-85.634
662.6	-85.6341
662.7	-85.6342
662.8	-85.6342
662.9	-85.6343
663	-85.6344
663.1	-85.6344
663.2	-85.6345
663.3	-85.6346
663.4	-85.6346
663.5	-85.6347
663.6	-85.6348
663.7	-85.6348
663.8	-85.6349
663.9	-85.635
664	-85.635
664.1	-85.6351
664.2	-85.6351
664.3	-85.6352
664.4	-85.6353
664.5	-85.6353
664.6	-85.6354
664.7	-85.6355
664.8	-85.6355
664.9	-85.6356
665	-85.6357
665.1	-85.6357
665.2	-85.6358
665.3	-85.6359
665.4	-85.6359
665.5	-85.636
665.6	-85.6361
665.7	-85.6361
665.8	-85.6362
665.9	-85.6362
666	-85.6363
666.1	-85.6364
666.2	-85.6364
666.3	-85.6365
666.4	-85.6366
666.5	-85.6366
666.6	-85.6367
666.7	-85.6368
666.8	-85.6368
666.9	-85.6369
667	-85.6369
667.1	-85.637
667.2	-85.6371
667.3	-85.6371
667.4	-85.6372
667.5	-85.6373
667.6	-85.6373
667.7	-85.6374
667.8	-85.6375
667.9	-85.6375
668	-85.6376
668.1	-85.6377
668.2	-85.6377
668.3	-85.6378
668.4	-85.6378
668.5	-85.6379
668.6	-85.638
668.7	-85.638
668.8	-85.6381
668.9	-85.6382
669	-85.6382
669.1	-85.6383
669.2	-85.6383
669.3	-85.6384
669.4	-85.6385
669.5	-85.6385
669.6	-85.6386
669.7	-85.6387
669.8	-85.6387
669.9	-85.6388
670	-85.6389
670.1	-85.6389
670.2	-85.639
670.3	-85.639
670.4	-85.6391
670.5	-85.6392
670.6	-85.6392
670.7	-85.6393
670.8	-85.6394
670.9	-85.6394
671	-85.6395
671.1	-85.6395
671.2	-85.6396
671.3	-85.6397
671.4	-85.6397
671.5	-85.6398
671.6	-85.6399
671.7	-85.6399
671.8	-85.64
671.9	-85.64
672	-85.6401
672.1	-85.6402
672.2	-85.6402
672.3	-85.6403
672.4	-85.6404
672.5	-85.6404
672.6	-85.6405
672.7	-85.6405
672.8	-85.6406
672.9	-85.6407
673	-85.6407
673.1	-85.6408
673.2	-85.6409
673.3	-85.6409
673.4	-85.641
673.5	-85.641
673.6	-85.6411
673.7	-85.6412
673.8	-85.6412
673.9	-85.6413
674	-85.6414
674.1	-85.6414
674.2	-85.6415
674.3	-85.6415
674.4	-85.6416
674.5	-85.6417
674.6	-85.6417
674.7	-85.6418
674.8	-85.6419
674.9	-85.6419
675	-85.642
675.1	-85.642
675.2	-85.6421
675.3	-85.6422
675.4	-85.6422
675.5	-85.6423
675.6	-85.6423
675.7	-85.6424
675.8	-85.6425
675.9	-85.6425
676	-85.6426
676.1	-85.6427
676.2	-85.6427
676.3	-85.6428
676.4	-85.6428
676.5	-85.6429
676.6	-85.643
676.7	-85.643
676.8	-85.6431
676.9	-85.6431
677	-85.6432
677.1	-85.6433
677.2	-85.6433
677.3	-85.6434
677.4	-85.6434
677.5	-85.6435
677.6	-85.6436
677.7	-85.6436
677.8	-85.6437
677.9	-85.6438
678	-85.6438
678.1	-85.6439
678.2	-85.6439
678.3	-85.644
678.4	-85.6441
678.5	-85.6441
678.6	-85.6442
678.7	-85.6442
678.8	-85.6443
678.9	-85.6444
679	-85.6444
679.1	-85.6445
679.2	-85.6445
679.3	-85.6446
679.4	-85.6447
679.5	-85.6447
679.6	-85.6448
679.7	-85.6448
679.8	-85.6449
679.9	-85.645
680	-85.645
680.1	-85.6451
680.2	-85.6451
680.3	-85.6452
680.4	-85.6453
680.5	-85.6453
680.6	-85.6454
680.7	-85.6454
680.8	-85.6455
680.9	-85.6456
681	-85.6456
681.1	-85.6457
681.2	-85.6457
681.3	-85.6458
681.4	-85.6459
681.5	-85.6459
681.6	-85.646
681.7	-85.646
681.8	-85.6461
681.9	-85.6462
682	-85.6462
682.1	-85.6463
682.2	-85.6463
682.3	-85.6464
682.4	-85.6465
682.5	-85.6465
682.6	-85.6466
682.7	-85.6466
682.8	-85.6467
682.9	-85.6468
683	-85.6468
683.1	-85.6469
683.2	-85.6469
683.3	-85.647
683.4	-85.6471
683.5	-85.6471
683.6	-85.6472
683.7	-85.6472
683.8	-85.6473
683.9	-85.6474
684	-85.6474
684.1	-85.6475
684.2	-85.6475
684.3	-85.6476
684.4	-85.6477
684.5	-85.6477
684.6	-85.6478
684.7	-85.6478
684.8	-85.6479
684.9	-85.648
685	-85.648
685.1	-85.6481
685.2	-85.6481
685.3	-85.6482
685.4	-85.6482
685.5	-85.6483
685.6	-85.6484
685.7	-85.6484
685.8	-85.6485
685.9	-85.6485
686	-85.6486
686.1	-85.6487
686.2	-85.6487
686.3	-85.6488
686.4	-85.6488
686.5	-85.6489
686.6	-85.649
686.7	-85.649
686.8	-85.6491
686.9	-85.6491
687	-85.6492
687.1	-85.6492
687.2	-85.6493
687.3	-85.6494
687.4	-85.6494
687.5	-85.6495
687.6	-85.6495
687.7	-85.6496
687.8	-85.6497
687.9	-85.6497
688	-85.6498
688.1	-85.6498
688.2	-85.6499
688.3	-85.6499
688.4	-85.65
688.5	-85.6501
688.6	-85.6501
688.7	-85.6502
688.8	-85.6502
688.9	-85.6503
689	-85.6504
689.1	-85.6504
689.2	-85.6505
689.3	-85.6505
689.4	-85.6506
689.5	-85.6506
689.6	-85.6507
689.7	-85.6508
689.8	-85.6508
689.9	-85.6509
690	-85.6509
690.1	-85.651
690.2	-85.651
690.3	-85.6511
690.4	-85.6512
690.5	-85.6512
690.6	-85.6513
690.7	-85.6513
690.8	-85.6514
690.9	-85.6514
691	-85.6515
691.1	-85.6516
691.2	-85.6516
691.3	-85.6517
691.4	-85.6517
691.5	-85.6518
691.6	-85.6519
691.7	-85.6519
691.8	-85.652
691.9	-85.652
692	-85.6521
692.1	-85.6521
692.2	-85.6522
692.3	-85.6523
692.4	-85.6523
692.5	-85.6524
692.6	-85.6524
692.7	-85.6525
692.8	-85.6525
692.9	-85.6526
693	-85.6527
693.1	-85.6527
693.2	-85.6528
693.3	-85.6528
693.4	-85.6529
693.5	-85.6529
693.6	-85.653
693.7	-85.653
693.8	-85.6531
693.9	-85.6532
694	-85.6532
694.1	-85.6533
694.2	-85.6533
694.3	-85.6534
694.4	-85.6534
694.5	-85.6535
694.6	-85.6536
694.7	-85.6536
694.8	-85.6537
694.9	-85.6537
695	-85.6538
695.1	-85.6538
695.2	-85.6539
695.3	-85.654
695.4	-85.654
695.5	-85.6541
695.6	-85.6541
695.7	-85.6542
695.8	-85.6542
695.9	-85.6543
696	-85.6543
696.1	-85.6544
696.2	-85.6545
696.3	-85.6545
696.4	-85.6546
696.5	-85.6546
696.6	-85.6547
696.7	-85.6547
696.8	-85.6548
696.9	-85.6549
697	-85.6549
697.1	-85.655
697.2	-85.655
697.3	-85.6551
697.4	-85.6551
697.5	-85.6552
697.6	-85.6552
697.7	-85.6553
697.8	-85.6554
697.9	-85.6554
698	-85.6555
698.1	-85.6555
698.2	-85.6556
698.3	-85.6556
698.4	-85.6557
698.5	-85.6557
698.6	-85.6558
698.7	-85.6559
698.8	-85.6559
698.9	-85.656
699	-85.656
699.1	-85.6561
699.2	-85.6561
699.3	-85.6562
699.4	-85.6562
699.5	-85.6563
699.6	-85.6564
699.7	-85.6564
699.8	-85.6565
699.9	-85.6565
700	-85.6566
700.1	-85.6566
700.2	-85.6567
700.3	-85.6567
700.4	-85.6568
700.5	-85.6569
700.6	-85.6569
700.7	-85.657
700.8	-85.657
700.9	-85.6571
701	-85.6571
701.1	-85.6572
701.2	-85.6572
701.3	-85.6573
701.4	-85.6573
701.5	-85.6574
701.6	-85.6575
701.7	-85.6575
701.8	-85.6576
701.9	-85.6576
702	-85.6577
702.1	-85.6577
702.2	-85.6578
702.3	-85.6578
702.4	-85.6579
702.5	-85.658
702.6	-85.658
702.7	-85.6581
702.8	-85.6581
702.9	-85.6582
703	-85.6582
703.1	-85.6583
703.2	-85.6583
703.3	-85.6584
703.4	-85.6584
703.5	-85.6585
703.6	-85.6586
703.7	-85.6586
703.8	-85.6587
703.9	-85.6587
704	-85.6588
704.1	-85.6588
704.2	-85.6589
704.3	-85.6589
704.4	-85.659
704.5	-85.659
704.6	-85.6591
704.7	-85.6591
704.8	-85.6592
704.9	-85.6593
705	-85.6593
705.1	-85.6594
705.2	-85.6594
705.3	-85.6595
705.4	-85.6595
705.5	-85.6596
705.6	-85.6596
705.7	-85.6597
705.8	-85.6597
705.9	-85.6598
706	-85.6599
706.1	-85.6599
706.2	-85.66
706.3	-85.66
706.4	-85.6601
706.5	-85.6601
706.6	-85.6602
706.7	-85.6602
706.8	-85.6603
706.9	-85.6603
707	-85.6604
707.1	-85.6604
707.2	-85.6605
707.3	-85.6605
707.4	-85.6606
707.5	-85.6607
707.6	-85.6607
707.7	-85.6608
707.8	-85.6608
707.9	-85.6609
708	-85.6609
708.1	-85.661
708.2	-85.661
708.3	-85.6611
708.4	-85.6611
708.5	-85.6612
708.6	-85.6612
708.7	-85.6613
708.8	-85.6613
708.9	-85.6614
709	-85.6615
709.1	-85.6615
709.2	-85.6616
709.3	-85.6616
709.4	-85.6617
709.5	-85.6617
709.6	-85.6618
709.7	-85.6618
709.8	-85.6619
709.9	-85.6619
710	-85.662
710.1	-85.662
710.2	-85.6621
710.3	-85.6621
710.4	-85.6622
710.5	-85.6622
710.6	-85.6623
710.7	-85.6624
710.8	-85.6624
710.9	-85.6625
711	-85.6625
711.1	-85.6626
711.2	-85.6626
711.3	-85.6627
711.4	-85.6627
711.5	-85.6628
711.6	-85.6628
711.7	-85.6629
711.8	-85.6629
711.9	-85.663
712	-85.663
712.1	-85.6631
712.2	-85.6631
712.3	-85.6632
712.4	-85.6632
712.5	-85.6633
712.6	-85.6634
712.7	-85.6634
712.8	-85.6635
712.9	-85.6635
713	-85.6636
713.1	-85.6636
713.2	-85.6637
713.3	-85.6637
713.4	-85.6638
713.5	-85.6638
713.6	-85.6639
713.7	-85.6639
713.8	-85.664
713.9	-85.664
714	-85.6641
714.1	-85.6641
714.2	-85.6642
714.3	-85.6642
714.4	-85.6643
714.5	-85.6643
714.6	-85.6644
714.7	-85.6644
714.8	-85.6645
714.9	-85.6645
715	-85.6646
715.1	-85.6647
715.2	-85.6647
715.3	-85.6648
715.4	-85.6648
715.5	-85.6649
715.6	-85.6649
715.7	-85.665
715.8	-85.665
715.9	-85.6651
716	-85.6651
716.1	-85.6652
716.2	-85.6652
716.3	-85.6653
716.4	-85.6653
716.5	-85.6654
716.6	-85.6654
716.7	-85.6655
716.8	-85.6655
716.9	-85.6656
717	-85.6656
717.1	-85.6657
717.2	-85.6657
717.3	-85.6658
717.4	-85.6658
717.5	-85.6659
717.6	-85.6659
717.7	-85.666
717.8	-85.666
717.9	-85.6661
718	-85.6661
718.1	-85.6662
718.2	-85.6662
718.3	-85.6663
718.4	-85.6663
718.5	-85.6664
718.6	-85.6664
718.7	-85.6665
718.8	-85.6665
718.9	-85.6666
719	-85.6667
719.1	-85.6667
719.2	-85.6668
719.3	-85.6668
719.4	-85.6669
719.5	-85.6669
719.6	-85.667
719.7	-85.667
719.8	-85.6671
719.9	-85.6671
720	-85.6672
720.1	-85.6672
720.2	-85.6673
720.3	-85.6673
720.4	-85.6674
720.5	-85.6674
720.6	-85.6675
720.7	-85.6675
720.8	-85.6676
720.9	-85.6676
721	-85.6677
721.1	-85.6677
721.2	-85.6678
721.3	-85.6678
721.4	-85.6679
721.5	-85.6679
721.6	-85.668
721.7	-85.668
721.8	-85.6681
721.9	-85.6681
722	-85.6682
722.1	-85.6682
722.2	-85.6683
722.3	-85.6683
722.4	-85.6684
722.5	-85.6684
722.6	-85.6685
722.7	-85.6685
722.8	-85.6686
722.9	-85.6686
723	-85.6687
723.1	-85.6687
723.2	-85.6688
723.3	-85.6688
723.4	-85.6689
723.5	-85.6689
723.6	-85.669
723.7	-85.669
723.8	-85.6691
723.9	-85.6691
724	-85.6692
724.1	-85.6692
724.2	-85.6693
724.3	-85.6693
724.4	-85.6694
724.5	-85.6694
724.6	-85.6695
724.7	-85.6695
724.8	-85.6696
724.9	-85.6696
725	-85.6697
725.1	-85.6697
725.2	-85.6698
725.3	-85.6698
725.4	-85.6699
725.5	-85.6699
725.6	-85.67
725.7	-85.67
725.8	-85.6701
725.9	-85.6701
726	-85.6702
726.1	-85.6702
726.2	-85.6703
726.3	-85.6703
726.4	-85.6704
726.5	-85.6704
726.6	-85.6705
726.7	-85.6705
726.8	-85.6705
726.9	-85.6706
727	-85.6706
727.1	-85.6707
727.2	-85.6707
727.3	-85.6708
727.4	-85.6708
727.5	-85.6709
727.6	-85.6709
727.7	-85.671
727.8	-85.671
727.9	-85.6711
728	-85.6711
728.1	-85.6712
728.2	-85.6712
728.3	-85.6713
728.4	-85.6713
728.5	-85.6714
728.6	-85.6714
728.7	-85.6715
728.8	-85.6715
728.9	-85.6716
729	-85.6716
729.1	-85.6717
729.2	-85.6717
729.3	-85.6718
729.4	-85.6718
729.5	-85.6719
729.6	-85.6719
729.7	-85.672
729.8	-85.672
729.9	-85.6721
730	-85.6721
730.1	-85.6722
730.2	-85.6722
730.3	-85.6723
730.4	-85.6723
730.5	-85.6724
730.6	-85.6724
730.7	-85.6724
730.8	-85.6725
730.9	-85.6725
731	-85.6726
731.1	-85.6726
731.2	-85.6727
731.3	-85.6727
731.4	-85.6728
731.5	-85.6728
731.6	-85.6729
731.7	-85.6729
731.8	-85.673
731.9	-85.673
732	-85.6731
732.1	-85.6731
732.2	-85.6732
732.3	-85.6732
732.4	-85.6733
732.5	-85.6733
732.6	-85.6734
732.7	-85.6734
732.8	-85.6735
732.9	-85.6735
733	-85.6736
733.1	-85.6736
733.2	-85.6736
733.3	-85.6737
733.4	-85.6737
733.5	-85.6738
733.6	-85.6738
733.7	-85.6739
733.8	-85.6739
733.9	-85.674
734	-85.674
734.1	-85.6741
734.2	-85.6741
734.3	-85.6742
734.4	-85.6742
734.5	-85.6743
734.6	-85.6743
734.7	-85.6744
734.8	-85.6744
734.9	-85.6745
735	-85.6745
735.1	-85.6746
735.2	-85.6746
735.3	-85.6746
735.4	-85.6747
735.5	-85.6747
735.6	-85.6748
735.7	-85.6748
735.8	-85.6749
735.9	-85.6749
736	-85.675
736.1	-85.675
736.2	-85.6751
736.3	-85.6751
736.4	-85.6752
736.5	-85.6752
736.6	-85.6753
736.7	-85.6753
736.8	-85.6754
736.9	-85.6754
737	-85.6755
737.1	-85.6755
737.2	-85.6755
737.3	-85.6756
737.4	-85.6756
737.5	-85.6757
737.6	-85.6757
737.7	-85.6758
737.8	-85.6758
737.9	-85.6759
738	-85.6759
738.1	-85.676
738.2	-85.676
738.3	-85.6761
738.4	-85.6761
738.5	-85.6762
738.6	-85.6762
738.7	-85.6762
738.8	-85.6763
738.9	-85.6763
739	-85.6764
739.1	-85.6764
739.2	-85.6765
739.3	-85.6765
739.4	-85.6766
739.5	-85.6766
739.6	-85.6767
739.7	-85.6767
739.8	-85.6768
739.9	-85.6768
740	-85.6769
740.1	-85.6769
740.2	-85.6769
740.3	-85.677
740.4	-85.677
740.5	-85.6771
740.6	-85.6771
740.7	-85.6772
740.8	-85.6772
740.9	-85.6773
741	-85.6773
741.1	-85.6774
741.2	-85.6774
741.3	-85.6775
741.4	-85.6775
741.5	-85.6775
741.6	-85.6776
741.7	-85.6776
741.8	-85.6777
741.9	-85.6777
742	-85.6778
742.1	-85.6778
742.2	-85.6779
742.3	-85.6779
742.4	-85.678
742.5	-85.678
742.6	-85.6781
742.7	-85.6781
742.8	-85.6781
742.9	-85.6782
743	-85.6782
743.1	-85.6783
743.2	-85.6783
743.3	-85.6784
743.4	-85.6784
743.5	-85.6785
743.6	-85.6785
743.7	-85.6786
743.8	-85.6786
743.9	-85.6786
744	-85.6787
744.1	-85.6787
744.2	-85.6788
744.3	-85.6788
744.4	-85.6789
744.5	-85.6789
744.6	-85.679
744.7	-85.679
744.8	-85.6791
744.9	-85.6791
745	-85.6791
745.1	-85.6792
745.2	-85.6792
745.3	-85.6793
745.4	-85.6793
745.5	-85.6794
745.6	-85.6794
745.7	-85.6795
745.8	-85.6795
745.9	-85.6796
746	-85.6796
746.1	-85.6796
746.2	-85.6797
746.3	-85.6797
746.4	-85.6798
746.5	-85.6798
746.6	-85.6799
746.7	-85.6799
746.8	-85.68
746.9	-85.68
747	-85.68
747.1	-85.6801
747.2	-85.6801
747.3	-85.6802
747.4	-85.6802
747.5	-85.6803
747.6	-85.6803
747.7	-85.6804
747.8	-85.6804
747.9	-85.6805
748	-85.6805
748.1	-85.6805
748.2	-85.6806
748.3	-85.6806
748.4	-85.6807
748.5	-85.6807
748.6	-85.6808
748.7	-85.6808
748.8	-85.6809
748.9	-85.6809
749	-85.6809
749.1	-85.681
749.2	-85.681
749.3	-85.6811
749.4	-85.6811
749.5	-85.6812
749.6	-85.6812
749.7	-85.6813
749.8	-85.6813
749.9	-85.6813
750	-85.6814
750.1	-85.6814
750.2	-85.6815
750.3	-85.6815
750.4	-85.6816
750.5	-85.6816
750.6	-85.6817
750.7	-85.6817
750.8	-85.6817
750.9	-85.6818
751	-85.6818
751.1	-85.6819
751.2	-85.6819
751.3	-85.682
751.4	-85.682
751.5	-85.6821
751.6	-85.6821
751.7	-85.6821
751.8	-85.6822
751.9	-85.6822
752	-85.6823
752.1	-85.6823
752.2	-85.6824
752.3	-85.6824
752.4	-85.6825
752.5	-85.6825
752.6	-85.6825
752.7	-85.6826
752.8	-85.6826
752.9	-85.6827
753	-85.6827
753.1	-85.6828
753.2	-85.6828
753.3	-85.6828
753.4	-85.6829
753.5	-85.6829
753.6	-85.683
753.7	-85.683
753.8	-85.6831
753.9	-85.6831
754	-85.6832
754.1	-85.6832
754.2	-85.6832
754.3	-85.6833
754.4	-85.6833
754.5	-85.6834
754.6	-85.6834
754.7	-85.6835
754.8	-85.6835
754.9	-85.6835
755	-85.6836
755.1	-85.6836
755.2	-85.6837
755.3	-85.6837
755.4	-85.6838
755.5	-85.6838
755.6	-85.6838
755.7	-85.6839
755.8	-85.6839
755.9	-85.684
756	-85.684
756.1	-85.6841
756.2	-85.6841
756.3	-85.6842
756.4	-85.6842
756.5	-85.6842
756.6	-85.6843
756.7	-85.6843
756.8	-85.6844
756.9	-85.6844
757	-85.6845
757.1	-85.6845
757.2	-85.6845
757.3	-85.6846
757.4	-85.6846
757.5	-85.6847
757.6	-85.6847
757.7	-85.6848
757.8	-85.6848
757.9	-85.6848
758	-85.6849
758.1	-85.6849
758.2	-85.685
758.3	-85.685
758.4	-85.6851
758.5	-85.6851
758.6	-85.6851
758.7	-85.6852
758.8	-85.6852
758.9	-85.6853
759	-85.6853
759.1	-85.6854
759.2	-85.6854
759.3	-85.6854
759.4	-85.6855
759.5	-85.6855
759.6	-85.6856
759.7	-85.6856
759.8	-85.6857
759.9	-85.6857
760	-85.6857
760.1	-85.6858
760.2	-85.6858
760.3	-85.6859
760.4	-85.6859
760.5	-85.686
760.6	-85.686
760.7	-85.686
760.8	-85.6861
760.9	-85.6861
761	-85.6862
761.1	-85.6862
761.2	-85.6862
761.3	-85.6863
761.4	-85.6863
761.5	-85.6864
761.6	-85.6864
761.7	-85.6865
761.8	-85.6865
761.9	-85.6865
762	-85.6866
762.1	-85.6866
762.2	-85.6867
762.3	-85.6867
762.4	-85.6868
762.5	-85.6868
762.6	-85.6868
762.7	-85.6869
762.8	-85.6869
762.9	-85.687
763	-85.687
763.1	-85.687
763.2	-85.6871
763.3	-85.6871
763.4	-85.6872
763.5	-85.6872
763.6	-85.6873
763.7	-85.6873
763.8	-85.6873
763.9	-85.6874
764	-85.6874
764.1	-85.6875
764.2	-85.6875
764.3	-85.6875
764.4	-85.6876
764.5	-85.6876
764.6	-85.6877
764.7	-85.6877
764.8	-85.6878
764.9	-85.6878
765	-85.6878
765.1	-85.6879
765.2	-85.6879
765.3	-85.688
765.4	-85.688
765.5	-85.688
765.6	-85.6881
765.7	-85.6881
765.8	-85.6882
765.9	-85.6882
766	-85.6883
766.1	-85.6883
766.2	-85.6883
766.3	-85.6884
766.4	-85.6884
766.5	-85.6885
766.6	-85.6885
766.7	-85.6885
766.8	-85.6886
766.9	-85.6886
767	-85.6887
767.1	-85.6887
767.2	-85.6888
767.3	-85.6888
767.4	-85.6888
767.5	-85.6889
767.6	-85.6889
767.7	-85.689
767.8	-85.689
767.9	-85.689
768	-85.6891
768.1	-85.6891
768.2	-85.6892
768.3	-85.6892
768.4	-85.6892
768.5	-85.6893
768.6	-85.6893
768.7	-85.6894
768.8	-85.6894
768.9	-85.6895
769	-85.6895
769.1	-85.6895
769.2	-85.6896
769.3	-85.6896
769.4	-85.6897
769.5	-85.6897
769.6	-85.6897
769.7	-85.6898
769.8	-85.6898
769.9	-85.6899
770	-85.6899
770.1	-85.6899
770.2	-85.69
770.3	-85.69
770.4	-85.6901
770.5	-85.6901
770.6	-85.6901
770.7	-85.6902
770.8	-85.6902
770.9	-85.6903
771	-85.6903
771.1	-85.6903
771.2	-85.6904
771.3	-85.6904
771.4	-85.6905
771.5	-85.6905
771.6	-85.6906
771.7	-85.6906
771.8	-85.6906
771.9	-85.6907
772	-85.6907
772.1	-85.6908
772.2	-85.6908
772.3	-85.6908
772.4	-85.6909
772.5	-85.6909
772.6	-85.691
772.7	-85.691
772.8	-85.691
772.9	-85.6911
773	-85.6911
773.1	-85.6912
773.2	-85.6912
773.3	-85.6912
773.4	-85.6913
773.5	-85.6913
773.6	-85.6914
773.7	-85.6914
773.8	-85.6914
773.9	-85.6915
774	-85.6915
774.1	-85.6916
774.2	-85.6916
774.3	-85.6916
774.4	-85.6917
774.5	-85.6917
774.6	-85.6918
774.7	-85.6918
774.8	-85.6918
774.9	-85.6919
775	-85.6919
775.1	-85.692
775.2	-85.692
775.3	-85.692
775.4	-85.6921
775.5	-85.6921
775.6	-85.6922
775.7	-85.6922
775.8	-85.6922
775.9	-85.6923
776	-85.6923
776.1	-85.6924
776.2	-85.6924
776.3	-85.6924
776.4	-85.6925
776.5	-85.6925
776.6	-85.6926
776.7	-85.6926
776.8	-85.6926
776.9	-85.6927
777	-85.6927
777.1	-85.6927
777.2	-85.6928
777.3	-85.6928
777.4	-85.6929
777.5	-85.6929
777.6	-85.6929
777.7	-85.693
777.8	-85.693
777.9	-85.6931
778	-85.6931
778.1	-85.6931
778.2	-85.6932
778.3	-85.6932
778.4	-85.6933
778.5	-85.6933
778.6	-85.6933
778.7	-85.6934
778.8	-85.6934
778.9	-85.6935
779	-85.6935
779.1	-85.6935
779.2	-85.6936
779.3	-85.6936
779.4	-85.6937
779.5	-85.6937
779.6	-85.6937
779.7	-85.6938
779.8	-85.6938
779.9	-85.6938
780	-85.6939
780.1	-85.6939
780.2	-85.694
780.3	-85.694
780.4	-85.694
780.5	-85.6941
780.6	-85.6941
780.7	-85.6942
780.8	-85.6942
780.9	-85.6942
781	-85.6943
781.1	-85.6943
781.2	-85.6944
781.3	-85.6944
781.4	-85.6944
781.5	-85.6945
781.6	-85.6945
781.7	-85.6945
781.8	-85.6946
781.9	-85.6946
782	-85.6947
782.1	-85.6947
782.2	-85.6947
782.3	-85.6948
782.4	-85.6948
782.5	-85.6949
782.6	-85.6949
782.7	-85.6949
782.8	-85.695
782.9	-85.695
783	-85.6951
783.1	-85.6951
783.2	-85.6951
783.3	-85.6952
783.4	-85.6952
783.5	-85.6952
783.6	-85.6953
783.7	-85.6953
783.8	-85.6954
783.9	-85.6954
784	-85.6954
784.1	-85.6955
784.2	-85.6955
784.3	-85.6956
784.4	-85.6956
784.5	-85.6956
784.6	-85.6957
784.7	-85.6957
784.8	-85.6957
784.9	-85.6958
785	-85.6958
785.1	-85.6959
785.2	-85.6959
785.3	-85.6959
785.4	-85.696
785.5	-85.696
785.6	-85.696
785.7	-85.6961
785.8	-85.6961
785.9	-85.6962
786	-85.6962
786.1	-85.6962
786.2	-85.6963
786.3	-85.6963
786.4	-85.6964
786.5	-85.6964
786.6	-85.6964
786.7	-85.6965
786.8	-85.6965
786.9	-85.6965
787	-85.6966
787.1	-85.6966
787.2	-85.6967
787.3	-85.6967
787.4	-85.6967
787.5	-85.6968
787.6	-85.6968
787.7	-85.6968
787.8	-85.6969
787.9	-85.6969
788	-85.697
788.1	-85.697
788.2	-85.697
788.3	-85.6971
788.4	-85.6971
788.5	-85.6971
788.6	-85.6972
788.7	-85.6972
788.8	-85.6973
788.9	-85.6973
789	-85.6973
789.1	-85.6974
789.2	-85.6974
789.3	-85.6974
789.4	-85.6975
789.5	-85.6975
789.6	-85.6976
789.7	-85.6976
789.8	-85.6976
789.9	-85.6977
790	-85.6977
790.1	-85.6977
790.2	-85.6978
790.3	-85.6978
790.4	-85.6979
790.5	-85.6979
790.6	-85.6979
790.7	-85.698
790.8	-85.698
790.9	-85.698
791	-85.6981
791.1	-85.6981
791.2	-85.6982
791.3	-85.6982
791.4	-85.6982
791.5	-85.6983
791.6	-85.6983
791.7	-85.6983
791.8	-85.6984
791.9	-85.6984
792	-85.6985
792.1	-85.6985
792.2	-85.6985
792.3	-85.6986
792.4	-85.6986
792.5	-85.6986
792.6	-85.6987
792.7	-85.6987
792.8	-85.6987
792.9	-85.6988
793	-85.6988
793.1	-85.6989
793.2	-85.6989
793.3	-85.6989
793.4	-85.699
793.5	-85.699
793.6	-85.699
793.7	-85.6991
793.8	-85.6991
793.9	-85.6992
794	-85.6992
794.1	-85.6992
794.2	-85.6993
794.3	-85.6993
794.4	-85.6993
794.5	-85.6994
794.6	-85.6994
794.7	-85.6994
794.8	-85.6995
794.9	-85.6995
795	-85.6996
795.1	-85.6996
795.2	-85.6996
795.3	-85.6997
795.4	-85.6997
795.5	-85.6997
795.6	-85.6998
795.7	-85.6998
795.8	-85.6998
795.9	-85.6999
796	-85.6999
796.1	-85.7
796.2	-85.7
796.3	-85.7
796.4	-85.7001
796.5	-85.7001
796.6	-85.7001
796.7	-85.7002
796.8	-85.7002
796.9	-85.7002
797	-85.7003
797.1	-85.7003
797.2	-85.7004
797.3	-85.7004
797.4	-85.7004
797.5	-85.7005
797.6	-85.7005
797.7	-85.7005
797.8	-85.7006
797.9	-85.7006
798	-85.7006
798.1	-85.7007
798.2	-85.7007
798.3	-85.7008
798.4	-85.7008
798.5	-85.7008
798.6	-85.7009
798.7	-85.7009
798.8	-85.7009
798.9	-85.701
799	-85.701
799.1	-85.701
799.2	-85.7011
799.3	-85.7011
799.4	-85.7012
799.5	-85.7012
799.6	-85.7012
799.7	-85.7013
799.8	-85.7013
799.9	-85.7013
800	-85.7014
800.1	-85.7014
800.2	-85.7014
800.3	-85.7015
800.4	-85.7015
800.5	-85.7015
800.6	-85.7016
800.7	-85.7016
800.8	-85.7017
800.9	-85.7017
801	-85.7017
801.1	-85.7018
801.2	-85.7018
801.3	-85.7018
801.4	-85.7019
801.5	-85.7019
801.6	-85.7019
801.7	-85.702
801.8	-85.702
801.9	-85.702
802	-85.7021
802.1	-85.7021
802.2	-85.7022
802.3	-85.7022
802.4	-85.7022
802.5	-85.7023
802.6	-85.7023
802.7	-85.7023
802.8	-85.7024
802.9	-85.7024
803	-85.7024
803.1	-85.7025
803.2	-85.7025
803.3	-85.7025
803.4	-85.7026
803.5	-85.7026
803.6	-85.7026
803.7	-85.7027
803.8	-85.7027
803.9	-85.7028
804	-85.7028
804.1	-85.7028
804.2	-85.7029
804.3	-85.7029
804.4	-85.7029
804.5	-85.703
804.6	-85.703
804.7	-85.703
804.8	-85.7031
804.9	-85.7031
805	-85.7031
805.1	-85.7032
805.2	-85.7032
805.3	-85.7032
805.4	-85.7033
805.5	-85.7033
805.6	-85.7033
805.7	-85.7034
805.8	-85.7034
805.9	-85.7035
806	-85.7035
806.1	-85.7035
806.2	-85.7036
806.3	-85.7036
806.4	-85.7036
806.5	-85.7037
806.6	-85.7037
806.7	-85.7037
806.8	-85.7038
806.9	-85.7038
807	-85.7038
807.1	-85.7039
807.2	-85.7039
807.3	-85.7039
807.4	-85.704
807.5	-85.704
807.6	-85.704
807.7	-85.7041
807.8	-85.7041
807.9	-85.7041
808	-85.7042
808.1	-85.7042
808.2	-85.7043
808.3	-85.7043
808.4	-85.7043
808.5	-85.7044
808.6	-85.7044
808.7	-85.7044
808.8	-85.7045
808.9	-85.7045
809	-85.7045
809.1	-85.7046
809.2	-85.7046
809.3	-85.7046
809.4	-85.7047
809.5	-85.7047
809.6	-85.7047
809.7	-85.7048
809.8	-85.7048
809.9	-85.7048
810	-85.7049
810.1	-85.7049
810.2	-85.7049
810.3	-85.705
810.4	-85.705
810.5	-85.705
810.6	-85.7051
810.7	-85.7051
810.8	-85.7051
810.9	-85.7052
811	-85.7052
811.1	-85.7052
811.2	-85.7053
811.3	-85.7053
811.4	-85.7054
811.5	-85.7054
811.6	-85.7054
811.7	-85.7055
811.8	-85.7055
811.9	-85.7055
812	-85.7056
812.1	-85.7056
812.2	-85.7056
812.3	-85.7057
812.4	-85.7057
812.5	-85.7057
812.6	-85.7058
812.7	-85.7058
812.8	-85.7058
812.9	-85.7059
813	-85.7059
813.1	-85.7059
813.2	-85.706
813.3	-85.706
813.4	-85.706
813.5	-85.7061
813.6	-85.7061
813.7	-85.7061
813.8	-85.7062
813.9	-85.7062
814	-85.7062
814.1	-85.7063
814.2	-85.7063
814.3	-85.7063
814.4	-85.7064
814.5	-85.7064
814.6	-85.7064
814.7	-85.7065
814.8	-85.7065
814.9	-85.7065
815	-85.7066
815.1	-85.7066
815.2	-85.7066
815.3	-85.7067
815.4	-85.7067
815.5	-85.7067
815.6	-85.7068
815.7	-85.7068
815.8	-85.7068
815.9	-85.7069
816	-85.7069
816.1	-85.7069
816.2	-85.707
816.3	-85.707
816.4	-85.707
816.5	-85.7071
816.6	-85.7071
816.7	-85.7071
816.8	-85.7072
816.9	-85.7072
817	-85.7072
817.1	-85.7073
817.2	-85.7073
817.3	-85.7073
817.4	-85.7074
817.5	-85.7074
817.6	-85.7074
817.7	-85.7075
817.8	-85.7075
817.9	-85.7075
818	-85.7076
818.1	-85.7076
818.2	-85.7076
818.3	-85.7077
818.4	-85.7077
818.5	-85.7077
818.6	-85.7078
818.7	-85.7078
818.8	-85.7078
818.9	-85.7079
819	-85.7079
819.1	-85.7079
819.2	-85.708
819.3	-85.708
819.4	-85.708
819.5	-85.7081
819.6	-85.7081
819.7	-85.7081
819.8	-85.7082
819.9	-85.7082
820	-85.7082
820.1	-85.7083
820.2	-85.7083
820.3	-85.7083
820.4	-85.7084
820.5	-85.7084
820.6	-85.7084
820.7	-85.7085
820.8	-85.7085
820.9	-85.7085
821	-85.7086
821.1	-85.7086
821.2	-85.7086
821.3	-85.7087
821.4	-85.7087
821.5	-85.7087
821.6	-85.7088
821.7	-85.7088
821.8	-85.7088
821.9	-85.7089
822	-85.7089
822.1	-85.7089
822.2	-85.709
822.3	-85.709
822.4	-85.709
822.5	-85.709
822.6	-85.7091
822.7	-85.7091
822.8	-85.7091
822.9	-85.7092
823	-85.7092
823.1	-85.7092
823.2	-85.7093
823.3	-85.7093
823.4	-85.7093
823.5	-85.7094
823.6	-85.7094
823.7	-85.7094
823.8	-85.7095
823.9	-85.7095
824	-85.7095
824.1	-85.7096
824.2	-85.7096
824.3	-85.7096
824.4	-85.7097
824.5	-85.7097
824.6	-85.7097
824.7	-85.7098
824.8	-85.7098
824.9	-85.7098
825	-85.7099
825.1	-85.7099
825.2	-85.7099
825.3	-85.71
825.4	-85.71
825.5	-85.71
825.6	-85.7101
825.7	-85.7101
825.8	-85.7101
825.9	-85.7101
826	-85.7102
826.1	-85.7102
826.2	-85.7102
826.3	-85.7103
826.4	-85.7103
826.5	-85.7103
826.6	-85.7104
826.7	-85.7104
826.8	-85.7104
826.9	-85.7105
827	-85.7105
827.1	-85.7105
827.2	-85.7106
827.3	-85.7106
827.4	-85.7106
827.5	-85.7107
827.6	-85.7107
827.7	-85.7107
827.8	-85.7108
827.9	-85.7108
828	-85.7108
828.1	-85.7108
828.2	-85.7109
828.3	-85.7109
828.4	-85.7109
828.5	-85.711
828.6	-85.711
828.7	-85.711
828.8	-85.7111
828.9	-85.7111
829	-85.7111
829.1	-85.7112
829.2	-85.7112
829.3	-85.7112
829.4	-85.7113
829.5	-85.7113
829.6	-85.7113
829.7	-85.7114
829.8	-85.7114
829.9	-85.7114
830	-85.7114
830.1	-85.7115
830.2	-85.7115
830.3	-85.7115
830.4	-85.7116
830.5	-85.7116
830.6	-85.7116
830.7	-85.7117
830.8	-85.7117
830.9	-85.7117
831	-85.7118
831.1	-85.7118
831.2	-85.7118
831.3	-85.7119
831.4	-85.7119
831.5	-85.7119
831.6	-85.712
831.7	-85.712
831.8	-85.712
831.9	-85.712
832	-85.7121
832.1	-85.7121
832.2	-85.7121
832.3	-85.7122
832.4	-85.7122
832.5	-85.7122
832.6	-85.7123
832.7	-85.7123
832.8	-85.7123
832.9	-85.7124
833	-85.7124
833.1	-85.7124
833.2	-85.7125
833.3	-85.7125
833.4	-85.7125
833.5	-85.7125
833.6	-85.7126
833.7	-85.7126
833.8	-85.7126
833.9	-85.7127
834	-85.7127
834.1	-85.7127
834.2	-85.7128
834.3	-85.7128
834.4	-85.7128
834.5	-85.7129
834.6	-85.7129
834.7	-85.7129
834.8	-85.7129
834.9	-85.713
835	-85.713
835.1	-85.713
835.2	-85.7131
835.3	-85.7131
835.4	-85.7131
835.5	-85.7132
835.6	-85.7132
835.7	-85.7132
835.8	-85.7133
835.9	-85.7133
836	-85.7133
836.1	-85.7133
836.2	-85.7134
836.3	-85.7134
836.4	-85.7134
836.5	-85.7135
836.6	-85.7135
836.7	-85.7135
836.8	-85.7136
836.9	-85.7136
837	-85.7136
837.1	-85.7137
837.2	-85.7137
837.3	-85.7137
837.4	-85.7137
837.5	-85.7138
837.6	-85.7138
837.7	-85.7138
837.8	-85.7139
837.9	-85.7139
838	-85.7139
838.1	-85.714
838.2	-85.714
838.3	-85.714
838.4	-85.714
838.5	-85.7141
838.6	-85.7141
838.7	-85.7141
838.8	-85.7142
838.9	-85.7142
839	-85.7142
839.1	-85.7143
839.2	-85.7143
839.3	-85.7143
839.4	-85.7144
839.5	-85.7144
839.6	-85.7144
839.7	-85.7144
839.8	-85.7145
839.9	-85.7145
840	-85.7145
840.1	-85.7146
840.2	-85.7146
840.3	-85.7146
840.4	-85.7147
840.5	-85.7147
840.6	-85.7147
840.7	-85.7147
840.8	-85.7148
840.9	-85.7148
841	-85.7148
841.1	-85.7149
841.2	-85.7149
841.3	-85.7149
841.4	-85.715
841.5	-85.715
841.6	-85.715
841.7	-85.715
841.8	-85.7151
841.9	-85.7151
842	-85.7151
842.1	-85.7152
842.2	-85.7152
842.3	-85.7152
842.4	-85.7153
842.5	-85.7153
842.6	-85.7153
842.7	-85.7153
842.8	-85.7154
842.9	-85.7154
843	-85.7154
843.1	-85.7155
843.2	-85.7155
843.3	-85.7155
843.4	-85.7156
843.5	-85.7156
843.6	-85.7156
843.7	-85.7156
843.8	-85.7157
843.9	-85.7157
844	-85.7157
844.1	-85.7158
844.2	-85.7158
844.3	-85.7158
844.4	-85.7158
844.5	-85.7159
844.6	-85.7159
844.7	-85.7159
844.8	-85.716
844.9	-85.716
845	-85.716
845.1	-85.7161
845.2	-85.7161
845.3	-85.7161
845.4	-85.7161
845.5	-85.7162
845.6	-85.7162
845.7	-85.7162
845.8	-85.7163
845.9	-85.7163
846	-85.7163
846.1	-85.7164
846.2	-85.7164
846.3	-85.7164
846.4	-85.7164
846.5	-85.7165
846.6	-85.7165
846.7	-85.7165
846.8	-85.7166
846.9	-85.7166
847	-85.7166
847.1	-85.7166
847.2	-85.7167
847.3	-85.7167
847.4	-85.7167
847.5	-85.7168
847.6	-85.7168
847.7	-85.7168
847.8	-85.7168
847.9	-85.7169
848	-85.7169
848.1	-85.7169
848.2	-85.717
848.3	-85.717
848.4	-85.717
848.5	-85.7171
848.6	-85.7171
848.7	-85.7171
848.8	-85.7171
848.9	-85.7172
849	-85.7172
849.1	-85.7172
849.2	-85.7173
849.3	-85.7173
849.4	-85.7173
849.5	-85.7173
849.6	-85.7174
849.7	-85.7174
849.8	-85.7174
849.9	-85.7175
850	-85.7175
850.1	-85.7175
850.2	-85.7175
850.3	-85.7176
850.4	-85.7176
850.5	-85.7176
850.6	-85.7177
850.7	-85.7177
850.8	-85.7177
850.9	-85.7177
851	-85.7178
851.1	-85.7178
851.2	-85.7178
851.3	-85.7179
851.4	-85.7179
851.5	-85.7179
851.6	-85.718
851.7	-85.718
851.8	-85.718
851.9	-85.718
852	-85.7181
852.1	-85.7181
852.2	-85.7181
852.3	-85.7182
852.4	-85.7182
852.5	-85.7182
852.6	-85.7182
852.7	-85.7183
852.8	-85.7183
852.9	-85.7183
853	-85.7184
853.1	-85.7184
853.2	-85.7184
853.3	-85.7184
853.4	-85.7185
853.5	-85.7185
853.6	-85.7185
853.7	-85.7186
853.8	-85.7186
853.9	-85.7186
854	-85.7186
854.1	-85.7187
854.2	-85.7187
854.3	-85.7187
854.4	-85.7188
854.5	-85.7188
854.6	-85.7188
854.7	-85.7188
854.8	-85.7189
854.9	-85.7189
855	-85.7189
855.1	-85.7189
855.2	-85.719
855.3	-85.719
855.4	-85.719
855.5	-85.7191
855.6	-85.7191
855.7	-85.7191
855.8	-85.7191
855.9	-85.7192
856	-85.7192
856.1	-85.7192
856.2	-85.7193
856.3	-85.7193
856.4	-85.7193
856.5	-85.7193
856.6	-85.7194
856.7	-85.7194
856.8	-85.7194
856.9	-85.7195
857	-85.7195
857.1	-85.7195
857.2	-85.7195
857.3	-85.7196
857.4	-85.7196
857.5	-85.7196
857.6	-85.7197
857.7	-85.7197
857.8	-85.7197
857.9	-85.7197
858	-85.7198
858.1	-85.7198
858.2	-85.7198
858.3	-85.7198
858.4	-85.7199
858.5	-85.7199
858.6	-85.7199
858.7	-85.72
858.8	-85.72
858.9	-85.72
859	-85.72
859.1	-85.7201
859.2	-85.7201
859.3	-85.7201
859.4	-85.7202
859.5	-85.7202
859.6	-85.7202
859.7	-85.7202
859.8	-85.7203
859.9	-85.7203
860	-85.7203
860.1	-85.7203
860.2	-85.7204
860.3	-85.7204
860.4	-85.7204
860.5	-85.7205
860.6	-85.7205
860.7	-85.7205
860.8	-85.7205
860.9	-85.7206
861	-85.7206
861.1	-85.7206
861.2	-85.7207
861.3	-85.7207
861.4	-85.7207
861.5	-85.7207
861.6	-85.7208
861.7	-85.7208
861.8	-85.7208
861.9	-85.7208
862	-85.7209
862.1	-85.7209
862.2	-85.7209
862.3	-85.721
862.4	-85.721
862.5	-85.721
862.6	-85.721
862.7	-85.7211
862.8	-85.7211
862.9	-85.7211
863	-85.7211
863.1	-85.7212
863.2	-85.7212
863.3	-85.7212
863.4	-85.7213
863.5	-85.7213
863.6	-85.7213
863.7	-85.7213
863.8	-85.7214
863.9	-85.7214
864	-85.7214
864.1	-85.7214
864.2	-85.7215
864.3	-85.7215
864.4	-85.7215
864.5	-85.7216
864.6	-85.7216
864.7	-85.7216
864.8	-85.7216
864.9	-85.7217
865	-85.7217
865.1	-85.7217
865.2	-85.7217
865.3	-85.7218
865.4	-85.7218
865.5	-85.7218
865.6	-85.7219
865.7	-85.7219
865.8	-85.7219
865.9	-85.7219
866	-85.722
866.1	-85.722
866.2	-85.722
866.3	-85.722
866.4	-85.7221
866.5	-85.7221
866.6	-85.7221
866.7	-85.7222
866.8	-85.7222
866.9	-85.7222
867	-85.7222
867.1	-85.7223
867.2	-85.7223
867.3	-85.7223
867.4	-85.7223
867.5	-85.7224
867.6	-85.7224
867.7	-85.7224
867.8	-85.7224
867.9	-85.7225
868	-85.7225
868.1	-85.7225
868.2	-85.7226
868.3	-85.7226
868.4	-85.7226
868.5	-85.7226
868.6	-85.7227
868.7	-85.7227
868.8	-85.7227
868.9	-85.7227
869	-85.7228
869.1	-85.7228
869.2	-85.7228
869.3	-85.7229
869.4	-85.7229
869.5	-85.7229
869.6	-85.7229
869.7	-85.723
869.8	-85.723
869.9	-85.723
870	-85.723
870.1	-85.7231
870.2	-85.7231
870.3	-85.7231
870.4	-85.7231
870.5	-85.7232
870.6	-85.7232
870.7	-85.7232
870.8	-85.7232
870.9	-85.7233
871	-85.7233
871.1	-85.7233
871.2	-85.7234
871.3	-85.7234
871.4	-85.7234
871.5	-85.7234
871.6	-85.7235
871.7	-85.7235
871.8	-85.7235
871.9	-85.7235
872	-85.7236
872.1	-85.7236
872.2	-85.7236
872.3	-85.7236
872.4	-85.7237
872.5	-85.7237
872.6	-85.7237
872.7	-85.7238
872.8	-85.7238
872.9	-85.7238
873	-85.7238
873.1	-85.7239
873.2	-85.7239
873.3	-85.7239
873.4	-85.7239
873.5	-85.724
873.6	-85.724
873.7	-85.724
873.8	-85.724
873.9	-85.7241
874	-85.7241
874.1	-85.7241
874.2	-85.7241
874.3	-85.7242
874.4	-85.7242
874.5	-85.7242
874.6	-85.7242
874.7	-85.7243
874.8	-85.7243
874.9	-85.7243
875	-85.7244
875.1	-85.7244
875.2	-85.7244
875.3	-85.7244
875.4	-85.7245
875.5	-85.7245
875.6	-85.7245
875.7	-85.7245
875.8	-85.7246
875.9	-85.7246
876	-85.7246
876.1	-85.7246
876.2	-85.7247
876.3	-85.7247
876.4	-85.7247
876.5	-85.7247
876.6	-85.7248
876.7	-85.7248
876.8	-85.7248
876.9	-85.7248
877	-85.7249
877.1	-85.7249
877.2	-85.7249
877.3	-85.7249
877.4	-85.725
877.5	-85.725
877.6	-85.725
877.7	-85.7251
877.8	-85.7251
877.9	-85.7251
878	-85.7251
878.1	-85.7252
878.2	-85.7252
878.3	-85.7252
878.4	-85.7252
878.5	-85.7253
878.6	-85.7253
878.7	-85.7253
878.8	-85.7253
878.9	-85.7254
879	-85.7254
879.1	-85.7254
879.2	-85.7254
879.3	-85.7255
879.4	-85.7255
879.5	-85.7255
879.6	-85.7255
879.7	-85.7256
879.8	-85.7256
879.9	-85.7256
880	-85.7256
880.1	-85.7257
880.2	-85.7257
880.3	-85.7257
880.4	-85.7257
880.5	-85.7258
880.6	-85.7258
880.7	-85.7258
880.8	-85.7258
880.9	-85.7259
881	-85.7259
881.1	-85.7259
881.2	-85.7259
881.3	-85.726
881.4	-85.726
881.5	-85.726
881.6	-85.726
881.7	-85.7261
881.8	-85.7261
881.9	-85.7261
882	-85.7261
882.1	-85.7262
882.2	-85.7262
882.3	-85.7262
882.4	-85.7262
882.5	-85.7263
882.6	-85.7263
882.7	-85.7263
882.8	-85.7263
882.9	-85.7264
883	-85.7264
883.1	-85.7264
883.2	-85.7264
883.3	-85.7265
883.4	-85.7265
883.5	-85.7265
883.6	-85.7265
883.7	-85.7266
883.8	-85.7266
883.9	-85.7266
884	-85.7266
884.1	-85.7267
884.2	-85.7267
884.3	-85.7267
884.4	-85.7267
884.5	-85.7268
884.6	-85.7268
884.7	-85.7268
884.8	-85.7268
884.9	-85.7269
885	-85.7269
885.1	-85.7269
885.2	-85.7269
885.3	-85.727
885.4	-85.727
885.5	-85.727
885.6	-85.727
885.7	-85.7271
885.8	-85.7271
885.9	-85.7271
886	-85.7271
886.1	-85.7272
886.2	-85.7272
886.3	-85.7272
886.4	-85.7272
886.5	-85.7273
886.6	-85.7273
886.7	-85.7273
886.8	-85.7273
886.9	-85.7274
887	-85.7274
887.1	-85.7274
887.2	-85.7274
887.3	-85.7275
887.4	-85.7275
887.5	-85.7275
887.6	-85.7275
887.7	-85.7276
887.8	-85.7276
887.9	-85.7276
888	-85.7276
888.1	-85.7277
888.2	-85.7277
888.3	-85.7277
888.4	-85.7277
888.5	-85.7278
888.6	-85.7278
888.7	-85.7278
888.8	-85.7278
888.9	-85.7279
889	-85.7279
889.1	-85.7279
889.2	-85.7279
889.3	-85.728
889.4	-85.728
889.5	-85.728
889.6	-85.728
889.7	-85.7281
889.8	-85.7281
889.9	-85.7281
890	-85.7281
890.1	-85.7282
890.2	-85.7282
890.3	-85.7282
890.4	-85.7282
890.5	-85.7283
890.6	-85.7283
890.7	-85.7283
890.8	-85.7283
890.9	-85.7284
891	-85.7284
891.1	-85.7284
891.2	-85.7284
891.3	-85.7284
891.4	-85.7285
891.5	-85.7285
891.6	-85.7285
891.7	-85.7285
891.8	-85.7286
891.9	-85.7286
892	-85.7286
892.1	-85.7286
892.2	-85.7287
892.3	-85.7287
892.4	-85.7287
892.5	-85.7287
892.6	-85.7288
892.7	-85.7288
892.8	-85.7288
892.9	-85.7288
893	-85.7289
893.1	-85.7289
893.2	-85.7289
893.3	-85.7289
893.4	-85.729
893.5	-85.729
893.6	-85.729
893.7	-85.729
893.8	-85.7291
893.9	-85.7291
894	-85.7291
894.1	-85.7291
894.2	-85.7291
894.3	-85.7292
894.4	-85.7292
894.5	-85.7292
894.6	-85.7292
894.7	-85.7293
894.8	-85.7293
894.9	-85.7293
895	-85.7293
895.1	-85.7294
895.2	-85.7294
895.3	-85.7294
895.4	-85.7294
895.5	-85.7295
895.6	-85.7295
895.7	-85.7295
895.8	-85.7295
895.9	-85.7296
896	-85.7296
896.1	-85.7296
896.2	-85.7296
896.3	-85.7297
896.4	-85.7297
896.5	-85.7297
896.6	-85.7297
896.7	-85.7297
896.8	-85.7298
896.9	-85.7298
897	-85.7298
897.1	-85.7298
897.2	-85.7299
897.3	-85.7299
897.4	-85.7299
897.5	-85.7299
897.6	-85.73
897.7	-85.73
897.8	-85.73
897.9	-85.73
898	-85.7301
898.1	-85.7301
898.2	-85.7301
898.3	-85.7301
898.4	-85.7301
898.5	-85.7302
898.6	-85.7302
898.7	-85.7302
898.8	-85.7302
898.9	-85.7303
899	-85.7303
899.1	-85.7303
899.2	-85.7303
899.3	-85.7304
899.4	-85.7304
899.5	-85.7304
899.6	-85.7304
899.7	-85.7305
899.8	-85.7305
899.9	-85.7305
900	-85.7305
900.1	-85.7305
900.2	-85.7306
900.3	-85.7306
900.4	-85.7306
900.5	-85.7306
900.6	-85.7307
900.7	-85.7307
900.8	-85.7307
900.9	-85.7307
901	-85.7308
901.1	-85.7308
901.2	-85.7308
901.3	-85.7308
901.4	-85.7309
901.5	-85.7309
901.6	-85.7309
901.7	-85.7309
901.8	-85.7309
901.9	-85.731
902	-85.731
902.1	-85.731
902.2	-85.731
902.3	-85.7311
902.4	-85.7311
902.5	-85.7311
902.6	-85.7311
902.7	-85.7312
902.8	-85.7312
902.9	-85.7312
903	-85.7312
903.1	-85.7312
903.2	-85.7313
903.3	-85.7313
903.4	-85.7313
903.5	-85.7313
903.6	-85.7314
903.7	-85.7314
903.8	-85.7314
903.9	-85.7314
904	-85.7315
904.1	-85.7315
904.2	-85.7315
904.3	-85.7315
904.4	-85.7315
904.5	-85.7316
904.6	-85.7316
904.7	-85.7316
904.8	-85.7316
904.9	-85.7317
905	-85.7317
905.1	-85.7317
905.2	-85.7317
905.3	-85.7318
905.4	-85.7318
905.5	-85.7318
905.6	-85.7318
905.7	-85.7318
905.8	-85.7319
905.9	-85.7319
906	-85.7319
906.1	-85.7319
906.2	-85.732
906.3	-85.732
906.4	-85.732
906.5	-85.732
906.6	-85.732
906.7	-85.7321
906.8	-85.7321
906.9	-85.7321
907	-85.7321
907.1	-85.7322
907.2	-85.7322
907.3	-85.7322
907.4	-85.7322
907.5	-85.7323
907.6	-85.7323
907.7	-85.7323
907.8	-85.7323
907.9	-85.7323
908	-85.7324
908.1	-85.7324
908.2	-85.7324
908.3	-85.7324
908.4	-85.7325
908.5	-85.7325
908.6	-85.7325
908.7	-85.7325
908.8	-85.7325
908.9	-85.7326
909	-85.7326
909.1	-85.7326
909.2	-85.7326
909.3	-85.7327
909.4	-85.7327
909.5	-85.7327
909.6	-85.7327
909.7	-85.7327
909.8	-85.7328
909.9	-85.7328
910	-85.7328
910.1	-85.7328
910.2	-85.7329
910.3	-85.7329
910.4	-85.7329
910.5	-85.7329
910.6	-85.733
910.7	-85.733
910.8	-85.733
910.9	-85.733
911	-85.733
911.1	-85.7331
911.2	-85.7331
911.3	-85.7331
911.4	-85.7331
911.5	-85.7332
911.6	-85.7332
911.7	-85.7332
911.8	-85.7332
911.9	-85.7332
912	-85.7333
912.1	-85.7333
912.2	-85.7333
912.3	-85.7333
912.4	-85.7334
912.5	-85.7334
912.6	-85.7334
912.7	-85.7334
912.8	-85.7334
912.9	-85.7335
913	-85.7335
913.1	-85.7335
913.2	-85.7335
913.3	-85.7336
913.4	-85.7336
913.5	-85.7336
913.6	-85.7336
913.7	-85.7336
913.8	-85.7337
913.9	-85.7337
914	-85.7337
914.1	-85.7337
914.2	-85.7337
914.3	-85.7338
914.4	-85.7338
914.5	-85.7338
914.6	-85.7338
914.7	-85.7339
914.8	-85.7339
914.9	-85.7339
915	-85.7339
915.1	-85.7339
915.2	-85.734
915.3	-85.734
915.4	-85.734
915.5	-85.734
915.6	-85.7341
915.7	-85.7341
915.8	-85.7341
915.9	-85.7341
916	-85.7341
916.1	-85.7342
916.2	-85.7342
916.3	-85.7342
916.4	-85.7342
916.5	-85.7343
916.6	-85.7343
916.7	-85.7343
916.8	-85.7343
916.9	-85.7343
917	-85.7344
917.1	-85.7344
917.2	-85.7344
917.3	-85.7344
917.4	-85.7345
917.5	-85.7345
917.6	-85.7345
917.7	-85.7345
917.8	-85.7345
917.9	-85.7346
918	-85.7346
918.1	-85.7346
918.2	-85.7346
918.3	-85.7346
918.4	-85.7347
918.5	-85.7347
918.6	-85.7347
918.7	-85.7347
918.8	-85.7348
918.9	-85.7348
919	-85.7348
919.1	-85.7348
919.2	-85.7348
919.3	-85.7349
919.4	-85.7349
919.5	-85.7349
919.6	-85.7349
919.7	-85.7349
919.8	-85.735
919.9	-85.735
920	-85.735
920.1	-85.735
920.2	-85.7351
920.3	-85.7351
920.4	-85.7351
920.5	-85.7351
920.6	-85.7351
920.7	-85.7352
920.8	-85.7352
920.9	-85.7352
921	-85.7352
921.1	-85.7352
921.2	-85.7353
921.3	-85.7353
921.4	-85.7353
921.5	-85.7353
921.6	-85.7354
921.7	-85.7354
921.8	-85.7354
921.9	-85.7354
922	-85.7354
922.1	-85.7355
922.2	-85.7355
922.3	-85.7355
922.4	-85.7355
922.5	-85.7355
922.6	-85.7356
922.7	-85.7356
922.8	-85.7356
922.9	-85.7356
923	-85.7357
923.1	-85.7357
923.2	-85.7357
923.3	-85.7357
923.4	-85.7357
923.5	-85.7358
923.6	-85.7358
923.7	-85.7358
923.8	-85.7358
923.9	-85.7358
924	-85.7359
924.1	-85.7359
924.2	-85.7359
924.3	-85.7359
924.4	-85.736
924.5	-85.736
924.6	-85.736
924.7	-85.736
924.8	-85.736
924.9	-85.7361
925	-85.7361
925.1	-85.7361
925.2	-85.7361
925.3	-85.7361
925.4	-85.7362
925.5	-85.7362
925.6	-85.7362
925.7	-85.7362
925.8	-85.7362
925.9	-85.7363
926	-85.7363
926.1	-85.7363
926.2	-85.7363
926.3	-85.7363
926.4	-85.7364
926.5	-85.7364
926.6	-85.7364
926.7	-85.7364
926.8	-85.7365
926.9	-85.7365
927	-85.7365
927.1	-85.7365
927.2	-85.7365
927.3	-85.7366
927.4	-85.7366
927.5	-85.7366
927.6	-85.7366
927.7	-85.7366
927.8	-85.7367
927.9	-85.7367
928	-85.7367
928.1	-85.7367
928.2	-85.7367
928.3	-85.7368
928.4	-85.7368
928.5	-85.7368
928.6	-85.7368
928.7	-85.7368
928.8	-85.7369
928.9	-85.7369
929	-85.7369
929.1	-85.7369
929.2	-85.737
929.3	-85.737
929.4	-85.737
929.5	-85.737
929.6	-85.737
929.7	-85.7371
929.8	-85.7371
929.9	-85.7371
930	-85.7371
930.1	-85.7371
930.2	-85.7372
930.3	-85.7372
930.4	-85.7372
930.5	-85.7372
930.6	-85.7372
930.7	-85.7373
930.8	-85.7373
930.9	-85.7373
931	-85.7373
931.1	-85.7373
931.2	-85.7374
931.3	-85.7374
931.4	-85.7374
931.5	-85.7374
931.6	-85.7374
931.7	-85.7375
931.8	-85.7375
931.9	-85.7375
932	-85.7375
932.1	-85.7375
932.2	-85.7376
932.3	-85.7376
932.4	-85.7376
932.5	-85.7376
932.6	-85.7377
932.7	-85.7377
932.8	-85.7377
932.9	-85.7377
933	-85.7377
933.1	-85.7378
933.2	-85.7378
933.3	-85.7378
933.4	-85.7378
933.5	-85.7378
933.6	-85.7379
933.7	-85.7379
933.8	-85.7379
933.9	-85.7379
934	-85.7379
934.1	-85.738
934.2	-85.738
934.3	-85.738
934.4	-85.738
934.5	-85.738
934.6	-85.7381
934.7	-85.7381
934.8	-85.7381
934.9	-85.7381
935	-85.7381
935.1	-85.7382
935.2	-85.7382
935.3	-85.7382
935.4	-85.7382
935.5	-85.7382
935.6	-85.7383
935.7	-85.7383
935.8	-85.7383
935.9	-85.7383
936	-85.7383
936.1	-85.7384
936.2	-85.7384
936.3	-85.7384
936.4	-85.7384
936.5	-85.7384
936.6	-85.7385
936.7	-85.7385
936.8	-85.7385
936.9	-85.7385
937	-85.7385
937.1	-85.7386
937.2	-85.7386
937.3	-85.7386
937.4	-85.7386
937.5	-85.7386
937.6	-85.7387
937.7	-85.7387
937.8	-85.7387
937.9	-85.7387
938	-85.7387
938.1	-85.7388
938.2	-85.7388
938.3	-85.7388
938.4	-85.7388
938.5	-85.7388
938.6	-85.7389
938.7	-85.7389
938.8	-85.7389
938.9	-85.7389
939	-85.7389
939.1	-85.739
939.2	-85.739
939.3	-85.739
939.4	-85.739
939.5	-85.739
939.6	-85.7391
939.7	-85.7391
939.8	-85.7391
939.9	-85.7391
940	-85.7391
940.1	-85.7392
940.2	-85.7392
940.3	-85.7392
940.4	-85.7392
940.5	-85.7392
940.6	-85.7393
940.7	-85.7393
940.8	-85.7393
940.9	-85.7393
941	-85.7393
941.1	-85.7394
941.2	-85.7394
941.3	-85.7394
941.4	-85.7394
941.5	-85.7394
941.6	-85.7395
941.7	-85.7395
941.8	-85.7395
941.9	-85.7395
942	-85.7395
942.1	-85.7396
942.2	-85.7396
942.3	-85.7396
942.4	-85.7396
942.5	-85.7396
942.6	-85.7396
942.7	-85.7397
942.8	-85.7397
942.9	-85.7397
943	-85.7397
943.1	-85.7397
943.2	-85.7398
943.3	-85.7398
943.4	-85.7398
943.5	-85.7398
943.6	-85.7398
943.7	-85.7399
943.8	-85.7399
943.9	-85.7399
944	-85.7399
944.1	-85.7399
944.2	-85.74
944.3	-85.74
944.4	-85.74
944.5	-85.74
944.6	-85.74
944.7	-85.7401
944.8	-85.7401
944.9	-85.7401
945	-85.7401
945.1	-85.7401
945.2	-85.7402
945.3	-85.7402
945.4	-85.7402
945.5	-85.7402
945.6	-85.7402
945.7	-85.7402
945.8	-85.7403
945.9	-85.7403
946	-85.7403
946.1	-85.7403
946.2	-85.7403
946.3	-85.7404
946.4	-85.7404
946.5	-85.7404
946.6	-85.7404
946.7	-85.7404
946.8	-85.7405
946.9	-85.7405
947	-85.7405
947.1	-85.7405
947.2	-85.7405
947.3	-85.7406
947.4	-85.7406
947.5	-85.7406
947.6	-85.7406
947.7	-85.7406
947.8	-85.7407
947.9	-85.7407
948	-85.7407
948.1	-85.7407
948.2	-85.7407
948.3	-85.7407
948.4	-85.7408
948.5	-85.7408
948.6	-85.7408
948.7	-85.7408
948.8	-85.7408
948.9	-85.7409
949	-85.7409
949.1	-85.7409
949.2	-85.7409
949.3	-85.7409
949.4	-85.741
949.5	-85.741
949.6	-85.741
949.7	-85.741
949.8	-85.741
949.9	-85.7411
950	-85.7411
950.1	-85.7411
950.2	-85.7411
950.3	-85.7411
950.4	-85.7411
950.5	-85.7412
950.6	-85.7412
950.7	-85.7412
950.8	-85.7412
950.9	-85.7412
951	-85.7413
951.1	-85.7413
951.2	-85.7413
951.3	-85.7413
951.4	-85.7413
951.5	-85.7414
951.6	-85.7414
951.7	-85.7414
951.8	-85.7414
951.9	-85.7414
952	-85.7414
952.1	-85.7415
952.2	-85.7415
952.3	-85.7415
952.4	-85.7415
952.5	-85.7415
952.6	-85.7416
952.7	-85.7416
952.8	-85.7416
952.9	-85.7416
953	-85.7416
953.1	-85.7417
953.2	-85.7417
953.3	-85.7417
953.4	-85.7417
953.5	-85.7417
953.6	-85.7417
953.7	-85.7418
953.8	-85.7418
953.9	-85.7418
954	-85.7418
954.1	-85.7418
954.2	-85.7419
954.3	-85.7419
954.4	-85.7419
954.5	-85.7419
954.6	-85.7419
954.7	-85.742
954.8	-85.742
954.9	-85.742
955	-85.742
955.1	-85.742
955.2	-85.742
955.3	-85.7421
955.4	-85.7421
955.5	-85.7421
955.6	-85.7421
955.7	-85.7421
955.8	-85.7422
955.9	-85.7422
956	-85.7422
956.1	-85.7422
956.2	-85.7422
956.3	-85.7422
956.4	-85.7423
956.5	-85.7423
956.6	-85.7423
956.7	-85.7423
956.8	-85.7423
956.9	-85.7424
957	-85.7424
957.1	-85.7424
957.2	-85.7424
957.3	-85.7424
957.4	-85.7425
957.5	-85.7425
957.6	-85.7425
957.7	-85.7425
957.8	-85.7425
957.9	-85.7425
958	-85.7426
958.1	-85.7426
958.2	-85.7426
958.3	-85.7426
958.4	-85.7426
958.5	-85.7427
958.6	-85.7427
958.7	-85.7427
958.8	-85.7427
958.9	-85.7427
959	-85.7427
959.1	-85.7428
959.2	-85.7428
959.3	-85.7428
959.4	-85.7428
959.5	-85.7428
959.6	-85.7429
959.7	-85.7429
959.8	-85.7429
959.9	-85.7429
960	-85.7429
960.1	-85.7429
960.2	-85.743
960.3	-85.743
960.4	-85.743
960.5	-85.743
960.6	-85.743
960.7	-85.7431
960.8	-85.7431
960.9	-85.7431
961	-85.7431
961.1	-85.7431
961.2	-85.7431
961.3	-85.7432
961.4	-85.7432
961.5	-85.7432
961.6	-85.7432
961.7	-85.7432
961.8	-85.7433
961.9	-85.7433
962	-85.7433
962.1	-85.7433
962.2	-85.7433
962.3	-85.7433
962.4	-85.7434
962.5	-85.7434
962.6	-85.7434
962.7	-85.7434
962.8	-85.7434
962.9	-85.7435
963	-85.7435
963.1	-85.7435
963.2	-85.7435
963.3	-85.7435
963.4	-85.7435
963.5	-85.7436
963.6	-85.7436
963.7	-85.7436
963.8	-85.7436
963.9	-85.7436
964	-85.7436
964.1	-85.7437
964.2	-85.7437
964.3	-85.7437
964.4	-85.7437
964.5	-85.7437
964.6	-85.7438
964.7	-85.7438
964.8	-85.7438
964.9	-85.7438
965	-85.7438
965.1	-85.7438
965.2	-85.7439
965.3	-85.7439
965.4	-85.7439
965.5	-85.7439
965.6	-85.7439
965.7	-85.7439
965.8	-85.744
965.9	-85.744
966	-85.744
966.1	-85.744
966.2	-85.744
966.3	-85.7441
966.4	-85.7441
966.5	-85.7441
966.6	-85.7441
966.7	-85.7441
966.8	-85.7441
966.9	-85.7442
967	-85.7442
967.1	-85.7442
967.2	-85.7442
967.3	-85.7442
967.4	-85.7442
967.5	-85.7443
967.6	-85.7443
967.7	-85.7443
967.8	-85.7443
967.9	-85.7443
968	-85.7444
968.1	-85.7444
968.2	-85.7444
968.3	-85.7444
968.4	-85.7444
968.5	-85.7444
968.6	-85.7445
968.7	-85.7445
968.8	-85.7445
968.9	-85.7445
969	-85.7445
969.1	-85.7445
969.2	-85.7446
969.3	-85.7446
969.4	-85.7446
969.5	-85.7446
969.6	-85.7446
969.7	-85.7447
969.8	-85.7447
969.9	-85.7447
970	-85.7447
970.1	-85.7447
970.2	-85.7447
970.3	-85.7448
970.4	-85.7448
970.5	-85.7448
970.6	-85.7448
970.7	-85.7448
970.8	-85.7448
970.9	-85.7449
971	-85.7449
971.1	-85.7449
971.2	-85.7449
971.3	-85.7449
971.4	-85.7449
971.5	-85.745
971.6	-85.745
971.7	-85.745
971.8	-85.745
971.9	-85.745
972	-85.7451
972.1	-85.7451
972.2	-85.7451
972.3	-85.7451
972.4	-85.7451
972.5	-85.7451
972.6	-85.7452
972.7	-85.7452
972.8	-85.7452
972.9	-85.7452
973	-85.7452
973.1	-85.7452
973.2	-85.7453
973.3	-85.7453
973.4	-85.7453
973.5	-85.7453
973.6	-85.7453
973.7	-85.7453
973.8	-85.7454
973.9	-85.7454
974	-85.7454
974.1	-85.7454
974.2	-85.7454
974.3	-85.7454
974.4	-85.7455
974.5	-85.7455
974.6	-85.7455
974.7	-85.7455
974.8	-85.7455
974.9	-85.7455
975	-85.7456
975.1	-85.7456
975.2	-85.7456
975.3	-85.7456
975.4	-85.7456
975.5	-85.7457
975.6	-85.7457
975.7	-85.7457
975.8	-85.7457
975.9	-85.7457
976	-85.7457
976.1	-85.7458
976.2	-85.7458
976.3	-85.7458
976.4	-85.7458
976.5	-85.7458
976.6	-85.7458
976.7	-85.7459
976.8	-85.7459
976.9	-85.7459
977	-85.7459
977.1	-85.7459
977.2	-85.7459
977.3	-85.746
977.4	-85.746
977.5	-85.746
977.6	-85.746
977.7	-85.746
977.8	-85.746
977.9	-85.7461
978	-85.7461
978.1	-85.7461
978.2	-85.7461
978.3	-85.7461
978.4	-85.7461
978.5	-85.7462
978.6	-85.7462
978.7	-85.7462
978.8	-85.7462
978.9	-85.7462
979	-85.7462
979.1	-85.7463
979.2	-85.7463
979.3	-85.7463
979.4	-85.7463
979.5	-85.7463
979.6	-85.7463
979.7	-85.7464
979.8	-85.7464
979.9	-85.7464
980	-85.7464
980.1	-85.7464
980.2	-85.7464
980.3	-85.7465
980.4	-85.7465
980.5	-85.7465
980.6	-85.7465
980.7	-85.7465
980.8	-85.7465
980.9	-85.7466
981	-85.7466
981.1	-85.7466
981.2	-85.7466
981.3	-85.7466
981.4	-85.7466
981.5	-85.7467
981.6	-85.7467
981.7	-85.7467
981.8	-85.7467
981.9	-85.7467
982	-85.7467
982.1	-85.7468
982.2	-85.7468
982.3	-85.7468
982.4	-85.7468
982.5	-85.7468
982.6	-85.7468
982.7	-85.7469
982.8	-85.7469
982.9	-85.7469
983	-85.7469
983.1	-85.7469
983.2	-85.7469
983.3	-85.747
983.4	-85.747
983.5	-85.747
983.6	-85.747
983.7	-85.747
983.8	-85.747
983.9	-85.7471
984	-85.7471
984.1	-85.7471
984.2	-85.7471
984.3	-85.7471
984.4	-85.7471
984.5	-85.7472
984.6	-85.7472
984.7	-85.7472
984.8	-85.7472
984.9	-85.7472
985	-85.7472
985.1	-85.7473
985.2	-85.7473
985.3	-85.7473
985.4	-85.7473
985.5	-85.7473
985.6	-85.7473
985.7	-85.7473
985.8	-85.7474
985.9	-85.7474
986	-85.7474
986.1	-85.7474
986.2	-85.7474
986.3	-85.7474
986.4	-85.7475
986.5	-85.7475
986.6	-85.7475
986.7	-85.7475
986.8	-85.7475
986.9	-85.7475
987	-85.7476
987.1	-85.7476
987.2	-85.7476
987.3	-85.7476
987.4	-85.7476
987.5	-85.7476
987.6	-85.7477
987.7	-85.7477
987.8	-85.7477
987.9	-85.7477
988	-85.7477
988.1	-85.7477
988.2	-85.7478
988.3	-85.7478
988.4	-85.7478
988.5	-85.7478
988.6	-85.7478
988.7	-85.7478
988.8	-85.7479
988.9	-85.7479
989	-85.7479
989.1	-85.7479
989.2	-85.7479
989.3	-85.7479
989.4	-85.7479
989.5	-85.748
989.6	-85.748
989.7	-85.748
989.8	-85.748
989.9	-85.748
990	-85.748
990.1	-85.7481
990.2	-85.7481
990.3	-85.7481
990.4	-85.7481
990.5	-85.7481
990.6	-85.7481
990.7	-85.7482
990.8	-85.7482
990.9	-85.7482
991	-85.7482
991.1	-85.7482
991.2	-85.7482
991.3	-85.7482
991.4	-85.7483
991.5	-85.7483
991.6	-85.7483
991.7	-85.7483
991.8	-85.7483
991.9	-85.7483
992	-85.7484
992.1	-85.7484
992.2	-85.7484
992.3	-85.7484
992.4	-85.7484
992.5	-85.7484
992.6	-85.7485
992.7	-85.7485
992.8	-85.7485
992.9	-85.7485
993	-85.7485
993.1	-85.7485
993.2	-85.7486
993.3	-85.7486
993.4	-85.7486
993.5	-85.7486
993.6	-85.7486
993.7	-85.7486
993.8	-85.7486
993.9	-85.7487
994	-85.7487
994.1	-85.7487
994.2	-85.7487
994.3	-85.7487
994.4	-85.7487
994.5	-85.7488
994.6	-85.7488
994.7	-85.7488
994.8	-85.7488
994.9	-85.7488
995	-85.7488
995.1	-85.7488
995.2	-85.7489
995.3	-85.7489
995.4	-85.7489
995.5	-85.7489
995.6	-85.7489
995.7	-85.7489
995.8	-85.749
995.9	-85.749
996	-85.749
996.1	-85.749
996.2	-85.749
996.3	-85.749
996.4	-85.7491
996.5	-85.7491
996.6	-85.7491
996.7	-85.7491
996.8	-85.7491
996.9	-85.7491
997	-85.7491
997.1	-85.7492
997.2	-85.7492
997.3	-85.7492
997.4	-85.7492
997.5	-85.7492
997.6	-85.7492
997.7	-85.7493
997.8	-85.7493
997.9	-85.7493
998	-85.7493
998.1	-85.7493
998.2	-85.7493
998.3	-85.7493
998.4	-85.7494
998.5	-85.7494
998.6	-85.7494
998.7	-85.7494
998.8	-85.7494
998.9	-85.7494
999	-85.7495
999.1	-85.7495
999.2	-85.7495
999.3	-85.7495
999.4	-85.7495
999.5	-85.7495
999.6	-85.7495
999.7	-85.7496
999.8	-85.7496
999.9	-85.7496
1000	-85.7496
