Time(ms)	Membrane_Voltage(mV)
-5	-85.7486
-4.9	-85.7487
-4.8	-85.7487
-4.7	-85.7487
-4.6	-85.7487
-4.5	-85.7487
-4.4	-85.7487
-4.3	-85.7488
-4.2	-85.7488
-4.1	-85.7488
-4	-85.7488
-3.9	-85.7488
-3.8	-85.7488
-3.7	-85.7488
-3.6	-85.7489
-3.5	-85.7489
-3.4	-85.7489
-3.3	-85.7489
-3.2	-85.7489
-3.1	-85.7489
-3	-85.749
-2.9	-85.749
-2.8	-85.749
-2.7	-85.749
-2.6	-85.749
-2.5	-85.749
-2.4	-85.749
-2.3	-85.7491
-2.2	-85.7491
-2.1	-85.7491
-2	-85.7491
-1.9	-85.7491
-1.8	-85.7491
-1.7	-85.7492
-1.6	-85.7492
-1.5	-85.7492
-1.4	-85.7492
-1.3	-85.7492
-1.2	-85.7492
-1.1	-85.7492
-1	-85.7493
-0.9	-85.7493
-0.8	-85.7493
-0.7	-85.7493
-0.6	-85.7493
-0.5	-85.7493
-0.4	-85.7494
-0.3	-85.7494
-0.2	-85.7494
-0.1	-85.7494
0	-85.7494
0.1	-84.1717
0.2	-82.6338
0.3	-81.13
0.4	-79.6549
0.5	-78.2039
0.6	-76.7728
0.7	-75.3576
0.8	-73.9549
0.9	-72.5614
1	-71.1744
1.1	-69.791
1.2	-68.4091
1.3	-67.0264
1.4	-65.6405
1.5	-64.2493
1.6	-62.8499
1.7	-61.4385
1.8	-60.0093
1.9	-58.5534
2	-57.056
2.1	-55.4921
2.2	-53.818
2.3	-51.9554
2.4	-49.7539
2.5	-46.8995
2.6	-42.6543
2.7	-35.1379
2.8	-20.4443
2.9	0.523423
3	15.1913
3.1	22.0166
3.2	24.9698
3.3	26.2496
3.4	26.8227
3.5	27.1137
3.6	27.3141
3.7	27.5137
3.8	27.756
3.9	28.0617
4	28.4394
4.1	28.8901
4.2	29.4102
4.3	29.9929
4.4	30.6302
4.5	31.313
4.6	32.0328
4.7	32.7814
4.8	33.5517
4.9	34.3375
5	35.1338
5.1	34.3649
5.2	33.6551
5.3	32.9991
5.4	32.3913
5.5	31.8264
5.6	31.2994
5.7	30.806
5.8	30.3424
5.9	29.9052
6	29.4915
6.1	29.0987
6.2	28.7247
6.3	28.3675
6.4	28.0255
6.5	27.6972
6.6	27.3816
6.7	27.0774
6.8	26.7838
6.9	26.4999
7	26.225
7.1	25.9586
7.2	25.7001
7.3	25.4489
7.4	25.2047
7.5	24.9671
7.6	24.7357
7.7	24.5103
7.8	24.2905
7.9	24.0762
8	23.867
8.1	23.6628
8.2	23.4634
8.3	23.2686
8.4	23.0782
8.5	22.8922
8.6	22.7103
8.7	22.5325
8.8	22.3586
8.9	22.1885
9	22.0221
9.1	21.8593
9.2	21.7001
9.3	21.5442
9.4	21.3917
9.5	21.2424
9.6	21.0963
9.7	20.9533
9.8	20.8133
9.9	20.6763
10	20.5422
10.1	20.4109
10.2	20.2824
10.3	20.1566
10.4	20.0334
10.5	19.9128
10.6	19.7947
10.7	19.6792
10.8	19.566
10.9	19.4552
11	19.3468
11.1	19.2406
11.2	19.1367
11.3	19.0349
11.4	18.9353
11.5	18.8377
11.6	18.7422
11.7	18.6488
11.8	18.5572
11.9	18.4676
12	18.3799
12.1	18.2941
12.2	18.21
12.3	18.1277
12.4	18.0472
12.5	17.9683
12.6	17.8911
12.7	17.8156
12.8	17.7416
12.9	17.6692
13	17.5983
13.1	17.5289
13.2	17.461
13.3	17.3945
13.4	17.3294
13.5	17.2657
13.6	17.2034
13.7	17.1424
13.8	17.0827
13.9	17.0242
14	16.967
14.1	16.911
14.2	16.8562
14.3	16.8026
14.4	16.7501
14.5	16.6988
14.6	16.6485
14.7	16.5993
14.8	16.5512
14.9	16.5042
15	16.4581
15.1	16.413
15.2	16.369
15.3	16.3258
15.4	16.2836
15.5	16.2424
15.6	16.202
15.7	16.1625
15.8	16.1239
15.9	16.0861
16	16.0492
16.1	16.0131
16.2	15.9778
16.3	15.9433
16.4	15.9095
16.5	15.8765
16.6	15.8443
16.7	15.8128
16.8	15.782
16.9	15.7519
17	15.7224
17.1	15.6937
17.2	15.6656
17.3	15.6382
17.4	15.6114
17.5	15.5852
17.6	15.5597
17.7	15.5348
17.8	15.5104
17.9	15.4866
18	15.4634
18.1	15.4408
18.2	15.4187
18.3	15.3971
18.4	15.3761
18.5	15.3556
18.6	15.3356
18.7	15.3161
18.8	15.2971
18.9	15.2786
19	15.2605
19.1	15.243
19.2	15.2258
19.3	15.2091
19.4	15.1929
19.5	15.1771
19.6	15.1617
19.7	15.1467
19.8	15.1322
19.9	15.118
20	15.1042
20.1	15.0908
20.2	15.0778
20.3	15.0652
20.4	15.0529
20.5	15.041
20.6	15.0294
20.7	15.0182
20.8	15.0073
20.9	14.9967
21	14.9864
21.1	14.9765
21.2	14.9669
21.3	14.9576
21.4	14.9486
21.5	14.9399
21.6	14.9314
21.7	14.9233
21.8	14.9154
21.9	14.9078
22	14.9005
22.1	14.8934
22.2	14.8865
22.3	14.88
22.4	14.8736
22.5	14.8675
22.6	14.8616
22.7	14.856
22.8	14.8506
22.9	14.8454
23	14.8404
23.1	14.8356
23.2	14.831
23.3	14.8267
23.4	14.8225
23.5	14.8185
23.6	14.8147
23.7	14.811
23.8	14.8076
23.9	14.8043
24	14.8012
24.1	14.7982
24.2	14.7954
24.3	14.7928
24.4	14.7903
24.5	14.788
24.6	14.7858
24.7	14.7837
24.8	14.7818
24.9	14.78
25	14.7784
25.1	14.7768
25.2	14.7754
25.3	14.7741
25.4	14.7729
25.5	14.7719
25.6	14.7709
25.7	14.77
25.8	14.7693
25.9	14.7686
26	14.768
26.1	14.7676
26.2	14.7672
26.3	14.7669
26.4	14.7666
26.5	14.7665
26.6	14.7664
26.7	14.7664
26.8	14.7664
26.9	14.7666
27	14.7668
27.1	14.767
27.2	14.7673
27.3	14.7677
27.4	14.7681
27.5	14.7686
27.6	14.7691
27.7	14.7696
27.8	14.7702
27.9	14.7709
28	14.7715
28.1	14.7722
28.2	14.773
28.3	14.7737
28.4	14.7745
28.5	14.7753
28.6	14.7762
28.7	14.777
28.8	14.7779
28.9	14.7788
29	14.7797
29.1	14.7806
29.2	14.7815
29.3	14.7825
29.4	14.7834
29.5	14.7844
29.6	14.7853
29.7	14.7862
29.8	14.7872
29.9	14.7881
30	14.789
30.1	14.7899
30.2	14.7909
30.3	14.7918
30.4	14.7926
30.5	14.7935
30.6	14.7944
30.7	14.7952
30.8	14.796
30.9	14.7968
31	14.7976
31.1	14.7983
31.2	14.799
31.3	14.7997
31.4	14.8004
31.5	14.801
31.6	14.8016
31.7	14.8022
31.8	14.8027
31.9	14.8032
32	14.8036
32.1	14.8041
32.2	14.8044
32.3	14.8048
32.4	14.8051
32.5	14.8053
32.6	14.8055
32.7	14.8057
32.8	14.8058
32.9	14.8059
33	14.8059
33.1	14.8058
33.2	14.8058
33.3	14.8056
33.4	14.8054
33.5	14.8052
33.6	14.8049
33.7	14.8045
33.8	14.8041
33.9	14.8037
34	14.8031
34.1	14.8026
34.2	14.8019
34.3	14.8012
34.4	14.8004
34.5	14.7996
34.6	14.7987
34.7	14.7977
34.8	14.7967
34.9	14.7956
35	14.7945
35.1	14.7933
35.2	14.792
35.3	14.7906
35.4	14.7892
35.5	14.7877
35.6	14.7861
35.7	14.7845
35.8	14.7828
35.9	14.781
36	14.7792
36.1	14.7772
36.2	14.7752
36.3	14.7732
36.4	14.771
36.5	14.7688
36.6	14.7665
36.7	14.7641
36.8	14.7617
36.9	14.7592
37	14.7566
37.1	14.7539
37.2	14.7512
37.3	14.7483
37.4	14.7454
37.5	14.7424
37.6	14.7394
37.7	14.7362
37.8	14.733
37.9	14.7297
38	14.7263
38.1	14.7229
38.2	14.7193
38.3	14.7157
38.4	14.712
38.5	14.7082
38.6	14.7043
38.7	14.7004
38.8	14.6964
38.9	14.6923
39	14.6881
39.1	14.6838
39.2	14.6794
39.3	14.675
39.4	14.6705
39.5	14.6659
39.6	14.6612
39.7	14.6564
39.8	14.6516
39.9	14.6466
40	14.6416
40.1	14.6365
40.2	14.6313
40.3	14.626
40.4	14.6207
40.5	14.6153
40.6	14.6097
40.7	14.6041
40.8	14.5984
40.9	14.5927
41	14.5868
41.1	14.5809
41.2	14.5749
41.3	14.5687
41.4	14.5626
41.5	14.5563
41.6	14.5499
41.7	14.5435
41.8	14.537
41.9	14.5304
42	14.5237
42.1	14.5169
42.2	14.51
42.3	14.5031
42.4	14.4961
42.5	14.489
42.6	14.4818
42.7	14.4745
42.8	14.4671
42.9	14.4597
43	14.4522
43.1	14.4446
43.2	14.4369
43.3	14.4291
43.4	14.4212
43.5	14.4133
43.6	14.4053
43.7	14.3972
43.8	14.389
43.9	14.3807
44	14.3724
44.1	14.364
44.2	14.3555
44.3	14.3469
44.4	14.3382
44.5	14.3295
44.6	14.3206
44.7	14.3117
44.8	14.3027
44.9	14.2936
45	14.2845
45.1	14.2753
45.2	14.2659
45.3	14.2565
45.4	14.2471
45.5	14.2375
45.6	14.2279
45.7	14.2182
45.8	14.2084
45.9	14.1985
46	14.1886
46.1	14.1785
46.2	14.1684
46.3	14.1583
46.4	14.148
46.5	14.1377
46.6	14.1273
46.7	14.1168
46.8	14.1062
46.9	14.0955
47	14.0848
47.1	14.074
47.2	14.0632
47.3	14.0522
47.4	14.0412
47.5	14.0301
47.6	14.0189
47.7	14.0077
47.8	13.9963
47.9	13.9849
48	13.9735
48.1	13.9619
48.2	13.9503
48.3	13.9386
48.4	13.9268
48.5	13.915
48.6	13.9031
48.7	13.8911
48.8	13.879
48.9	13.8669
49	13.8547
49.1	13.8424
49.2	13.8301
49.3	13.8176
49.4	13.8052
49.5	13.7926
49.6	13.78
49.7	13.7673
49.8	13.7545
49.9	13.7416
50	13.7287
50.1	13.7157
50.2	13.7027
50.3	13.6896
50.4	13.6764
50.5	13.6631
50.6	13.6498
50.7	13.6364
50.8	13.6229
50.9	13.6094
51	13.5958
51.1	13.5821
51.2	13.5684
51.3	13.5546
51.4	13.5407
51.5	13.5268
51.6	13.5128
51.7	13.4987
51.8	13.4846
51.9	13.4704
52	13.4562
52.1	13.4418
52.2	13.4274
52.3	13.413
52.4	13.3985
52.5	13.3839
52.6	13.3693
52.7	13.3545
52.8	13.3398
52.9	13.3249
53	13.31
53.1	13.2951
53.2	13.2801
53.3	13.265
53.4	13.2498
53.5	13.2346
53.6	13.2193
53.7	13.204
53.8	13.1886
53.9	13.1732
54	13.1577
54.1	13.1421
54.2	13.1265
54.3	13.1108
54.4	13.095
54.5	13.0792
54.6	13.0633
54.7	13.0474
54.8	13.0314
54.9	13.0154
55	12.9993
55.1	12.9831
55.2	12.9669
55.3	12.9506
55.4	12.9343
55.5	12.9179
55.6	12.9014
55.7	12.8849
55.8	12.8684
55.9	12.8517
56	12.8351
56.1	12.8183
56.2	12.8016
56.3	12.7847
56.4	12.7678
56.5	12.7509
56.6	12.7339
56.7	12.7168
56.8	12.6997
56.9	12.6825
57	12.6653
57.1	12.648
57.2	12.6307
57.3	12.6133
57.4	12.5959
57.5	12.5784
57.6	12.5609
57.7	12.5433
57.8	12.5256
57.9	12.5079
58	12.4902
58.1	12.4724
58.2	12.4545
58.3	12.4366
58.4	12.4187
58.5	12.4007
58.6	12.3826
58.7	12.3645
58.8	12.3463
58.9	12.3281
59	12.3099
59.1	12.2916
59.2	12.2732
59.3	12.2548
59.4	12.2364
59.5	12.2179
59.6	12.1993
59.7	12.1807
59.8	12.1621
59.9	12.1434
60	12.1246
60.1	12.1058
60.2	12.087
60.3	12.0681
60.4	12.0492
60.5	12.0302
60.6	12.0112
60.7	11.9921
60.8	11.973
60.9	11.9538
61	11.9346
61.1	11.9153
61.2	11.896
61.3	11.8767
61.4	11.8573
61.5	11.8379
61.6	11.8184
61.7	11.7988
61.8	11.7793
61.9	11.7596
62	11.74
62.1	11.7203
62.2	11.7005
62.3	11.6807
62.4	11.6609
62.5	11.641
62.6	11.621
62.7	11.6011
62.8	11.5811
62.9	11.561
63	11.5409
63.1	11.5208
63.2	11.5006
63.3	11.4803
63.4	11.4601
63.5	11.4397
63.6	11.4194
63.7	11.399
63.8	11.3786
63.9	11.3581
64	11.3375
64.1	11.317
64.2	11.2964
64.3	11.2757
64.4	11.255
64.5	11.2343
64.6	11.2135
64.7	11.1927
64.8	11.1719
64.9	11.151
65	11.1301
65.1	11.1091
65.2	11.0881
65.3	11.067
65.4	11.0459
65.5	11.0248
65.6	11.0036
65.7	10.9824
65.8	10.9612
65.9	10.9399
66	10.9186
66.1	10.8972
66.2	10.8758
66.3	10.8543
66.4	10.8329
66.5	10.8113
66.6	10.7898
66.7	10.7682
66.8	10.7466
66.9	10.7249
67	10.7032
67.1	10.6814
67.2	10.6596
67.3	10.6378
67.4	10.616
67.5	10.5941
67.6	10.5721
67.7	10.5502
67.8	10.5282
67.9	10.5061
68	10.484
68.1	10.4619
68.2	10.4398
68.3	10.4176
68.4	10.3953
68.5	10.3731
68.6	10.3508
68.7	10.3285
68.8	10.3061
68.9	10.2837
69	10.2612
69.1	10.2388
69.2	10.2162
69.3	10.1937
69.4	10.1711
69.5	10.1485
69.6	10.1258
69.7	10.1031
69.8	10.0804
69.9	10.0576
70	10.0349
70.1	10.012
70.2	9.98916
70.3	9.96626
70.4	9.94332
70.5	9.92035
70.6	9.89735
70.7	9.87431
70.8	9.85124
70.9	9.82813
71	9.80499
71.1	9.78181
71.2	9.7586
71.3	9.73536
71.4	9.71208
71.5	9.68877
71.6	9.66542
71.7	9.64205
71.8	9.61863
71.9	9.59519
72	9.57171
72.1	9.54819
72.2	9.52465
72.3	9.50107
72.4	9.47745
72.5	9.4538
72.6	9.43012
72.7	9.40641
72.8	9.38266
72.9	9.35889
73	9.33507
73.1	9.31123
73.2	9.28735
73.3	9.26344
73.4	9.23949
73.5	9.21552
73.6	9.19151
73.7	9.16746
73.8	9.14339
73.9	9.11928
74	9.09514
74.1	9.07097
74.2	9.04676
74.3	9.02252
74.4	8.99825
74.5	8.97395
74.6	8.94961
74.7	8.92525
74.8	8.90085
74.9	8.87642
75	8.85195
75.1	8.82746
75.2	8.80293
75.3	8.77837
75.4	8.75377
75.5	8.72915
75.6	8.70449
75.7	8.6798
75.8	8.65508
75.9	8.63033
76	8.60554
76.1	8.58073
76.2	8.55588
76.3	8.531
76.4	8.50609
76.5	8.48114
76.6	8.45616
76.7	8.43116
76.8	8.40612
76.9	8.38105
77	8.35594
77.1	8.33081
77.2	8.30564
77.3	8.28044
77.4	8.25521
77.5	8.22995
77.6	8.20466
77.7	8.17933
77.8	8.15397
77.9	8.12858
78	8.10316
78.1	8.07771
78.2	8.05223
78.3	8.02671
78.4	8.00117
78.5	7.97559
78.6	7.94998
78.7	7.92434
78.8	7.89866
78.9	7.87296
79	7.84722
79.1	7.82145
79.2	7.79565
79.3	7.76982
79.4	7.74396
79.5	7.71806
79.6	7.69213
79.7	7.66617
79.8	7.64018
79.9	7.61416
80	7.58811
80.1	7.56202
80.2	7.53591
80.3	7.50976
80.4	7.48358
80.5	7.45736
80.6	7.43112
80.7	7.40484
80.8	7.37854
80.9	7.3522
81	7.32583
81.1	7.29942
81.2	7.27299
81.3	7.24652
81.4	7.22002
81.5	7.19349
81.6	7.16693
81.7	7.14033
81.8	7.11371
81.9	7.08705
82	7.06036
82.1	7.03363
82.2	7.00688
82.3	6.98009
82.4	6.95327
82.5	6.92642
82.6	6.89954
82.7	6.87262
82.8	6.84567
82.9	6.81869
83	6.79168
83.1	6.76463
83.2	6.73755
83.3	6.71044
83.4	6.6833
83.5	6.65613
83.6	6.62892
83.7	6.60168
83.8	6.57441
83.9	6.5471
84	6.51976
84.1	6.49239
84.2	6.46499
84.3	6.43755
84.4	6.41008
84.5	6.38258
84.6	6.35504
84.7	6.32748
84.8	6.29987
84.9	6.27224
85	6.24457
85.1	6.21687
85.2	6.18914
85.3	6.16137
85.4	6.13357
85.5	6.10574
85.6	6.07787
85.7	6.04997
85.8	6.02204
85.9	5.99407
86	5.96607
86.1	5.93804
86.2	5.90997
86.3	5.88187
86.4	5.85373
86.5	5.82556
86.6	5.79736
86.7	5.76912
86.8	5.74085
86.9	5.71255
87	5.68421
87.1	5.65583
87.2	5.62743
87.3	5.59898
87.4	5.57051
87.5	5.542
87.6	5.51345
87.7	5.48487
87.8	5.45626
87.9	5.42761
88	5.39893
88.1	5.37021
88.2	5.34146
88.3	5.31267
88.4	5.28385
88.5	5.25499
88.6	5.2261
88.7	5.19717
88.8	5.16821
88.9	5.13921
89	5.11017
89.1	5.0811
89.2	5.052
89.3	5.02286
89.4	4.99369
89.5	4.96447
89.6	4.93523
89.7	4.90594
89.8	4.87663
89.9	4.84727
90	4.81788
90.1	4.78846
90.2	4.75899
90.3	4.72949
90.4	4.69996
90.5	4.67039
90.6	4.64078
90.7	4.61114
90.8	4.58145
90.9	4.55174
91	4.52198
91.1	4.49219
91.2	4.46236
91.3	4.4325
91.4	4.4026
91.5	4.37266
91.6	4.34268
91.7	4.31267
91.8	4.28262
91.9	4.25253
92	4.22241
92.1	4.19224
92.2	4.16204
92.3	4.1318
92.4	4.10153
92.5	4.07121
92.6	4.04086
92.7	4.01047
92.8	3.98004
92.9	3.94958
93	3.91907
93.1	3.88853
93.2	3.85795
93.3	3.82733
93.4	3.79667
93.5	3.76597
93.6	3.73524
93.7	3.70446
93.8	3.67365
93.9	3.6428
94	3.6119
94.1	3.58097
94.2	3.55
94.3	3.51899
94.4	3.48795
94.5	3.45686
94.6	3.42573
94.7	3.39456
94.8	3.36335
94.9	3.33211
95	3.30082
95.1	3.26949
95.2	3.23813
95.3	3.20672
95.4	3.17527
95.5	3.14378
95.6	3.11225
95.7	3.08069
95.8	3.04908
95.9	3.01743
96	2.98574
96.1	2.954
96.2	2.92223
96.3	2.89042
96.4	2.85856
96.5	2.82667
96.6	2.79473
96.7	2.76275
96.8	2.73073
96.9	2.69867
97	2.66656
97.1	2.63442
97.2	2.60223
97.3	2.57
97.4	2.53773
97.5	2.50542
97.6	2.47306
97.7	2.44067
97.8	2.40823
97.9	2.37574
98	2.34322
98.1	2.31065
98.2	2.27804
98.3	2.24539
98.4	2.21269
98.5	2.17996
98.6	2.14717
98.7	2.11435
98.8	2.08148
98.9	2.04857
99	2.01562
99.1	1.98262
99.2	1.94958
99.3	1.91649
99.4	1.88336
99.5	1.85019
99.6	1.81698
99.7	1.78371
99.8	1.75041
99.9	1.71706
100	1.68367
100.1	1.65023
100.2	1.61675
100.3	1.58322
100.4	1.54965
100.5	1.51604
100.6	1.48238
100.7	1.44868
100.8	1.41493
100.9	1.38113
101	1.34729
101.1	1.31341
101.2	1.27948
101.3	1.2455
101.4	1.21148
101.5	1.17742
101.6	1.14331
101.7	1.10915
101.8	1.07495
101.9	1.0407
102	1.0064
102.1	0.972064
102.2	0.937678
102.3	0.903246
102.4	0.868767
102.5	0.834243
102.6	0.799672
102.7	0.765055
102.8	0.730391
102.9	0.695681
103	0.660925
103.1	0.626121
103.2	0.591271
103.3	0.556374
103.4	0.521431
103.5	0.48644
103.6	0.451402
103.7	0.416317
103.8	0.381186
103.9	0.346006
104	0.31078
104.1	0.275506
104.2	0.240185
104.3	0.204816
104.4	0.169399
104.5	0.133935
104.6	0.0984236
104.7	0.0628641
104.8	0.0272568
104.9	-0.00839846
105	-0.0441016
105.1	-0.0798528
105.2	-0.115652
105.3	-0.1515
105.4	-0.187395
105.5	-0.223339
105.6	-0.259331
105.7	-0.295372
105.8	-0.331461
105.9	-0.367598
106	-0.403784
106.1	-0.440019
106.2	-0.476302
106.3	-0.512634
106.4	-0.549015
106.5	-0.585444
106.6	-0.621923
106.7	-0.65845
106.8	-0.695026
106.9	-0.731652
107	-0.768326
107.1	-0.805049
107.2	-0.841822
107.3	-0.878644
107.4	-0.915515
107.5	-0.952435
107.6	-0.989405
107.7	-1.02642
107.8	-1.06349
107.9	-1.10061
108	-1.13778
108.1	-1.17499
108.2	-1.21226
108.3	-1.24958
108.4	-1.28694
108.5	-1.32436
108.6	-1.36182
108.7	-1.39934
108.8	-1.4369
108.9	-1.47452
109	-1.51218
109.1	-1.54989
109.2	-1.58766
109.3	-1.62547
109.4	-1.66333
109.5	-1.70125
109.6	-1.73921
109.7	-1.77722
109.8	-1.81529
109.9	-1.8534
110	-1.89156
110.1	-1.92978
110.2	-1.96804
110.3	-2.00636
110.4	-2.04472
110.5	-2.08313
110.6	-2.1216
110.7	-2.16011
110.8	-2.19868
110.9	-2.23729
111	-2.27596
111.1	-2.31467
111.2	-2.35343
111.3	-2.39225
111.4	-2.43112
111.5	-2.47003
111.6	-2.509
111.7	-2.54801
111.8	-2.58708
111.9	-2.62619
112	-2.66536
112.1	-2.70458
112.2	-2.74384
112.3	-2.78316
112.4	-2.82253
112.5	-2.86194
112.6	-2.90141
112.7	-2.94093
112.8	-2.98049
112.9	-3.02011
113	-3.05978
113.1	-3.09949
113.2	-3.13926
113.3	-3.17908
113.4	-3.21895
113.5	-3.25886
113.6	-3.29883
113.7	-3.33884
113.8	-3.37891
113.9	-3.41903
114	-3.45919
114.1	-3.49941
114.2	-3.53967
114.3	-3.57999
114.4	-3.62035
114.5	-3.66077
114.6	-3.70123
114.7	-3.74174
114.8	-3.7823
114.9	-3.82292
115	-3.86358
115.1	-3.90429
115.2	-3.94505
115.3	-3.98585
115.4	-4.02671
115.5	-4.06762
115.6	-4.10857
115.7	-4.14958
115.8	-4.19063
115.9	-4.23173
116	-4.27289
116.1	-4.31408
116.2	-4.35533
116.3	-4.39663
116.4	-4.43798
116.5	-4.47937
116.6	-4.52081
116.7	-4.5623
116.8	-4.60384
116.9	-4.64543
117	-4.68706
117.1	-4.72874
117.2	-4.77048
117.3	-4.81225
117.4	-4.85408
117.5	-4.89595
117.6	-4.93787
117.7	-4.97984
117.8	-5.02186
117.9	-5.06392
118	-5.10603
118.1	-5.14819
118.2	-5.1904
118.3	-5.23265
118.4	-5.27495
118.5	-5.31729
118.6	-5.35968
118.7	-5.40212
118.8	-5.44461
118.9	-5.48714
119	-5.52971
119.1	-5.57234
119.2	-5.61501
119.3	-5.65772
119.4	-5.70048
119.5	-5.74329
119.6	-5.78614
119.7	-5.82904
119.8	-5.87198
119.9	-5.91497
120	-5.958
120.1	-6.00108
120.2	-6.0442
120.3	-6.08737
120.4	-6.13058
120.5	-6.17384
120.6	-6.21714
120.7	-6.26048
120.8	-6.30387
120.9	-6.3473
121	-6.39078
121.1	-6.4343
121.2	-6.47786
121.3	-6.52147
121.4	-6.56512
121.5	-6.60881
121.6	-6.65255
121.7	-6.69633
121.8	-6.74015
121.9	-6.78402
122	-6.82792
122.1	-6.87187
122.2	-6.91586
122.3	-6.9599
122.4	-7.00397
122.5	-7.04809
122.6	-7.09225
122.7	-7.13645
122.8	-7.18069
122.9	-7.22497
123	-7.26929
123.1	-7.31365
123.2	-7.35806
123.3	-7.4025
123.4	-7.44699
123.5	-7.49151
123.6	-7.53608
123.7	-7.58068
123.8	-7.62533
123.9	-7.67001
124	-7.71473
124.1	-7.7595
124.2	-7.8043
124.3	-7.84914
124.4	-7.89402
124.5	-7.93894
124.6	-7.98389
124.7	-8.02889
124.8	-8.07392
124.9	-8.11899
125	-8.1641
125.1	-8.20924
125.2	-8.25443
125.3	-8.29965
125.4	-8.3449
125.5	-8.3902
125.6	-8.43553
125.7	-8.4809
125.8	-8.5263
125.9	-8.57174
126	-8.61722
126.1	-8.66273
126.2	-8.70828
126.3	-8.75386
126.4	-8.79948
126.5	-8.84513
126.6	-8.89082
126.7	-8.93655
126.8	-8.9823
126.9	-9.0281
127	-9.07393
127.1	-9.11979
127.2	-9.16568
127.3	-9.21161
127.4	-9.25758
127.5	-9.30357
127.6	-9.3496
127.7	-9.39567
127.8	-9.44176
127.9	-9.48789
128	-9.53406
128.1	-9.58025
128.2	-9.62648
128.3	-9.67274
128.4	-9.71903
128.5	-9.76535
128.6	-9.81171
128.7	-9.85809
128.8	-9.90451
128.9	-9.95096
129	-9.99744
129.1	-10.044
129.2	-10.0905
129.3	-10.1371
129.4	-10.1837
129.5	-10.2303
129.6	-10.277
129.7	-10.3237
129.8	-10.3704
129.9	-10.4171
130	-10.4639
130.1	-10.5107
130.2	-10.5576
130.3	-10.6044
130.4	-10.6513
130.5	-10.6983
130.6	-10.7452
130.7	-10.7922
130.8	-10.8392
130.9	-10.8862
131	-10.9333
131.1	-10.9804
131.2	-11.0275
131.3	-11.0747
131.4	-11.1219
131.5	-11.1691
131.6	-11.2163
131.7	-11.2636
131.8	-11.3108
131.9	-11.3582
132	-11.4055
132.1	-11.4529
132.2	-11.5002
132.3	-11.5477
132.4	-11.5951
132.5	-11.6426
132.6	-11.6901
132.7	-11.7376
132.8	-11.7851
132.9	-11.8327
133	-11.8803
133.1	-11.9279
133.2	-11.9756
133.3	-12.0232
133.4	-12.0709
133.5	-12.1186
133.6	-12.1664
133.7	-12.2142
133.8	-12.2619
133.9	-12.3098
134	-12.3576
134.1	-12.4055
134.2	-12.4534
134.3	-12.5013
134.4	-12.5492
134.5	-12.5972
134.6	-12.6451
134.7	-12.6931
134.8	-12.7412
134.9	-12.7892
135	-12.8373
135.1	-12.8854
135.2	-12.9335
135.3	-12.9816
135.4	-13.0298
135.5	-13.078
135.6	-13.1262
135.7	-13.1744
135.8	-13.2227
135.9	-13.2709
136	-13.3192
136.1	-13.3675
136.2	-13.4159
136.3	-13.4642
136.4	-13.5126
136.5	-13.561
136.6	-13.6095
136.7	-13.6579
136.8	-13.7064
136.9	-13.7548
137	-13.8034
137.1	-13.8519
137.2	-13.9004
137.3	-13.949
137.4	-13.9976
137.5	-14.0462
137.6	-14.0948
137.7	-14.1435
137.8	-14.1922
137.9	-14.2409
138	-14.2896
138.1	-14.3383
138.2	-14.3871
138.3	-14.4359
138.4	-14.4847
138.5	-14.5335
138.6	-14.5823
138.7	-14.6312
138.8	-14.68
138.9	-14.7289
139	-14.7779
139.1	-14.8268
139.2	-14.8758
139.3	-14.9247
139.4	-14.9737
139.5	-15.0228
139.6	-15.0718
139.7	-15.1209
139.8	-15.1699
139.9	-15.219
140	-15.2682
140.1	-15.3173
140.2	-15.3665
140.3	-15.4156
140.4	-15.4648
140.5	-15.5141
140.6	-15.5633
140.7	-15.6126
140.8	-15.6618
140.9	-15.7111
141	-15.7605
141.1	-15.8098
141.2	-15.8592
141.3	-15.9086
141.4	-15.958
141.5	-16.0074
141.6	-16.0568
141.7	-16.1063
141.8	-16.1558
141.9	-16.2053
142	-16.2548
142.1	-16.3044
142.2	-16.3539
142.3	-16.4035
142.4	-16.4531
142.5	-16.5028
142.6	-16.5524
142.7	-16.6021
142.8	-16.6518
142.9	-16.7015
143	-16.7513
143.1	-16.801
143.2	-16.8508
143.3	-16.9006
143.4	-16.9504
143.5	-17.0003
143.6	-17.0502
143.7	-17.1001
143.8	-17.15
143.9	-17.1999
144	-17.2499
144.1	-17.2999
144.2	-17.3499
144.3	-17.3999
144.4	-17.45
144.5	-17.5001
144.6	-17.5502
144.7	-17.6003
144.8	-17.6504
144.9	-17.7006
145	-17.7508
145.1	-17.801
145.2	-17.8513
145.3	-17.9016
145.4	-17.9519
145.5	-18.0022
145.6	-18.0526
145.7	-18.1029
145.8	-18.1533
145.9	-18.2038
146	-18.2542
146.1	-18.3047
146.2	-18.3552
146.3	-18.4058
146.4	-18.4563
146.5	-18.5069
146.6	-18.5576
146.7	-18.6082
146.8	-18.6589
146.9	-18.7096
147	-18.7604
147.1	-18.8111
147.2	-18.8619
147.3	-18.9128
147.4	-18.9636
147.5	-19.0145
147.6	-19.0654
147.7	-19.1164
147.8	-19.1674
147.9	-19.2184
148	-19.2694
148.1	-19.3205
148.2	-19.3717
148.3	-19.4228
148.4	-19.474
148.5	-19.5252
148.6	-19.5765
148.7	-19.6278
148.8	-19.6791
148.9	-19.7304
149	-19.7818
149.1	-19.8333
149.2	-19.8847
149.3	-19.9363
149.4	-19.9878
149.5	-20.0394
149.6	-20.091
149.7	-20.1427
149.8	-20.1944
149.9	-20.2461
150	-20.2979
150.1	-20.3498
150.2	-20.4016
150.3	-20.4535
150.4	-20.5055
150.5	-20.5575
150.6	-20.6095
150.7	-20.6616
150.8	-20.7138
150.9	-20.7659
151	-20.8182
151.1	-20.8704
151.2	-20.9227
151.3	-20.9751
151.4	-21.0275
151.5	-21.08
151.6	-21.1325
151.7	-21.1851
151.8	-21.2377
151.9	-21.2904
152	-21.3431
152.1	-21.3958
152.2	-21.4487
152.3	-21.5015
152.4	-21.5545
152.5	-21.6075
152.6	-21.6605
152.7	-21.7136
152.8	-21.7668
152.9	-21.82
153	-21.8733
153.1	-21.9266
153.2	-21.98
153.3	-22.0335
153.4	-22.087
153.5	-22.1406
153.6	-22.1942
153.7	-22.2479
153.8	-22.3017
153.9	-22.3555
154	-22.4095
154.1	-22.4634
154.2	-22.5175
154.3	-22.5716
154.4	-22.6258
154.5	-22.68
154.6	-22.7343
154.7	-22.7887
154.8	-22.8432
154.9	-22.8978
155	-22.9524
155.1	-23.0071
155.2	-23.0619
155.3	-23.1167
155.4	-23.1716
155.5	-23.2266
155.6	-23.2817
155.7	-23.3369
155.8	-23.3922
155.9	-23.4475
156	-23.5029
156.1	-23.5584
156.2	-23.614
156.3	-23.6697
156.4	-23.7255
156.5	-23.7814
156.6	-23.8373
156.7	-23.8934
156.8	-23.9495
156.9	-24.0057
157	-24.0621
157.1	-24.1185
157.2	-24.175
157.3	-24.2316
157.4	-24.2884
157.5	-24.3452
157.6	-24.4021
157.7	-24.4591
157.8	-24.5163
157.9	-24.5735
158	-24.6308
158.1	-24.6883
158.2	-24.7458
158.3	-24.8035
158.4	-24.8613
158.5	-24.9192
158.6	-24.9772
158.7	-25.0353
158.8	-25.0935
158.9	-25.1519
159	-25.2103
159.1	-25.2689
159.2	-25.3277
159.3	-25.3865
159.4	-25.4454
159.5	-25.5045
159.6	-25.5637
159.7	-25.6231
159.8	-25.6825
159.9	-25.7421
160	-25.8019
160.1	-25.8617
160.2	-25.9217
160.3	-25.9818
160.4	-26.0421
160.5	-26.1025
160.6	-26.1631
160.7	-26.2237
160.8	-26.2846
160.9	-26.3455
161	-26.4066
161.1	-26.4679
161.2	-26.5293
161.3	-26.5909
161.4	-26.6526
161.5	-26.7144
161.6	-26.7765
161.7	-26.8386
161.8	-26.901
161.9	-26.9634
162	-27.0261
162.1	-27.0889
162.2	-27.1519
162.3	-27.215
162.4	-27.2783
162.5	-27.3417
162.6	-27.4054
162.7	-27.4692
162.8	-27.5331
162.9	-27.5973
163	-27.6616
163.1	-27.7261
163.2	-27.7907
163.3	-27.8556
163.4	-27.9206
163.5	-27.9858
163.6	-28.0512
163.7	-28.1167
163.8	-28.1825
163.9	-28.2484
164	-28.3146
164.1	-28.3809
164.2	-28.4474
164.3	-28.5141
164.4	-28.581
164.5	-28.6481
164.6	-28.7154
164.7	-28.7829
164.8	-28.8505
164.9	-28.9184
165	-28.9865
165.1	-29.0548
165.2	-29.1233
165.3	-29.192
165.4	-29.2609
165.5	-29.33
165.6	-29.3994
165.7	-29.4689
165.8	-29.5387
165.9	-29.6087
166	-29.6789
166.1	-29.7493
166.2	-29.8199
166.3	-29.8907
166.4	-29.9618
166.5	-30.0331
166.6	-30.1046
166.7	-30.1764
166.8	-30.2484
166.9	-30.3206
167	-30.393
167.1	-30.4657
167.2	-30.5386
167.3	-30.6117
167.4	-30.6851
167.5	-30.7587
167.6	-30.8325
167.7	-30.9066
167.8	-30.9809
167.9	-31.0555
168	-31.1303
168.1	-31.2054
168.2	-31.2807
168.3	-31.3562
168.4	-31.432
168.5	-31.5081
168.6	-31.5844
168.7	-31.6609
168.8	-31.7378
168.9	-31.8148
169	-31.8921
169.1	-31.9697
169.2	-32.0475
169.3	-32.1256
169.4	-32.204
169.5	-32.2826
169.6	-32.3615
169.7	-32.4406
169.8	-32.52
169.9	-32.5997
170	-32.6797
170.1	-32.7599
170.2	-32.8403
170.3	-32.9211
170.4	-33.0021
170.5	-33.0834
170.6	-33.165
170.7	-33.2469
170.8	-33.329
170.9	-33.4114
171	-33.4941
171.1	-33.577
171.2	-33.6603
171.3	-33.7438
171.4	-33.8276
171.5	-33.9117
171.6	-33.9961
171.7	-34.0808
171.8	-34.1657
171.9	-34.251
172	-34.3365
172.1	-34.4223
172.2	-34.5085
172.3	-34.5949
172.4	-34.6816
172.5	-34.7686
172.6	-34.8559
172.7	-34.9435
172.8	-35.0314
172.9	-35.1196
173	-35.2081
173.1	-35.2969
173.2	-35.386
173.3	-35.4754
173.4	-35.5651
173.5	-35.6551
173.6	-35.7455
173.7	-35.8361
173.8	-35.9271
173.9	-36.0183
174	-36.1099
174.1	-36.2018
174.2	-36.294
174.3	-36.3865
174.4	-36.4793
174.5	-36.5725
174.6	-36.666
174.7	-36.7597
174.8	-36.8539
174.9	-36.9483
175	-37.0431
175.1	-37.1382
175.2	-37.2336
175.3	-37.3293
175.4	-37.4254
175.5	-37.5218
175.6	-37.6185
175.7	-37.7156
175.8	-37.813
175.9	-37.9107
176	-38.0088
176.1	-38.1072
176.2	-38.206
176.3	-38.3051
176.4	-38.4045
176.5	-38.5043
176.6	-38.6044
176.7	-38.7049
176.8	-38.8057
176.9	-38.9069
177	-39.0084
177.1	-39.1103
177.2	-39.2125
177.3	-39.3151
177.4	-39.418
177.5	-39.5214
177.6	-39.625
177.7	-39.729
177.8	-39.8334
177.9	-39.9382
178	-40.0433
178.1	-40.1488
178.2	-40.2547
178.3	-40.3609
178.4	-40.4675
178.5	-40.5745
178.6	-40.6819
178.7	-40.7896
178.8	-40.8977
178.9	-41.0062
179	-41.1151
179.1	-41.2244
179.2	-41.3341
179.3	-41.4441
179.4	-41.5546
179.5	-41.6654
179.6	-41.7767
179.7	-41.8883
179.8	-42.0004
179.9	-42.1128
180	-42.2256
180.1	-42.3389
180.2	-42.4526
180.3	-42.5666
180.4	-42.6811
180.5	-42.796
180.6	-42.9114
180.7	-43.0271
180.8	-43.1433
180.9	-43.2599
181	-43.3769
181.1	-43.4943
181.2	-43.6122
181.3	-43.7305
181.4	-43.8493
181.5	-43.9685
181.6	-44.0881
181.7	-44.2082
181.8	-44.3287
181.9	-44.4497
182	-44.5712
182.1	-44.6931
182.2	-44.8154
182.3	-44.9382
182.4	-45.0615
182.5	-45.1852
182.6	-45.3095
182.7	-45.4341
182.8	-45.5593
182.9	-45.685
183	-45.8111
183.1	-45.9377
183.2	-46.0648
183.3	-46.1924
183.4	-46.3205
183.5	-46.4491
183.6	-46.5781
183.7	-46.7077
183.8	-46.8378
183.9	-46.9684
184	-47.0996
184.1	-47.2312
184.2	-47.3634
184.3	-47.4961
184.4	-47.6293
184.5	-47.7631
184.6	-47.8974
184.7	-48.0322
184.8	-48.1676
184.9	-48.3035
185	-48.44
185.1	-48.577
185.2	-48.7146
185.3	-48.8528
185.4	-48.9915
185.5	-49.1308
185.6	-49.2706
185.7	-49.4111
185.8	-49.5521
185.9	-49.6937
186	-49.8359
186.1	-49.9787
186.2	-50.1221
186.3	-50.2661
186.4	-50.4108
186.5	-50.556
186.6	-50.7018
186.7	-50.8483
186.8	-50.9954
186.9	-51.1431
187	-51.2914
187.1	-51.4404
187.2	-51.59
187.3	-51.7403
187.4	-51.8912
187.5	-52.0427
187.6	-52.195
187.7	-52.3478
187.8	-52.5014
187.9	-52.6556
188	-52.8105
188.1	-52.9661
188.2	-53.1223
188.3	-53.2792
188.4	-53.4369
188.5	-53.5952
188.6	-53.7542
188.7	-53.9139
188.8	-54.0743
188.9	-54.2354
189	-54.3972
189.1	-54.5597
189.2	-54.723
189.3	-54.8869
189.4	-55.0516
189.5	-55.217
189.6	-55.3832
189.7	-55.55
189.8	-55.7176
189.9	-55.886
190	-56.055
190.1	-56.2248
190.2	-56.3953
190.3	-56.5666
190.4	-56.7386
190.5	-56.9114
190.6	-57.0848
190.7	-57.2591
190.8	-57.434
190.9	-57.6097
191	-57.7862
191.1	-57.9634
191.2	-58.1413
191.3	-58.32
191.4	-58.4994
191.5	-58.6795
191.6	-58.8603
191.7	-59.0419
191.8	-59.2242
191.9	-59.4072
192	-59.591
192.1	-59.7754
192.2	-59.9606
192.3	-60.1464
192.4	-60.333
192.5	-60.5202
192.6	-60.7081
192.7	-60.8967
192.8	-61.0859
192.9	-61.2758
193	-61.4663
193.1	-61.6575
193.2	-61.8493
193.3	-62.0417
193.4	-62.2347
193.5	-62.4283
193.6	-62.6224
193.7	-62.8172
193.8	-63.0124
193.9	-63.2082
194	-63.4045
194.1	-63.6013
194.2	-63.7986
194.3	-63.9964
194.4	-64.1946
194.5	-64.3932
194.6	-64.5922
194.7	-64.7916
194.8	-64.9913
194.9	-65.1914
195	-65.3917
195.1	-65.5924
195.2	-65.7933
195.3	-65.9944
195.4	-66.1957
195.5	-66.3973
195.6	-66.5989
195.7	-66.8006
195.8	-67.0025
195.9	-67.2044
196	-67.4063
196.1	-67.6081
196.2	-67.8099
196.3	-68.0117
196.4	-68.2133
196.5	-68.4147
196.6	-68.6159
196.7	-68.8169
196.8	-69.0177
196.9	-69.2181
197	-69.4181
197.1	-69.6177
197.2	-69.817
197.3	-70.0157
197.4	-70.2139
197.5	-70.4115
197.6	-70.6086
197.7	-70.805
197.8	-71.0006
197.9	-71.1956
198	-71.3898
198.1	-71.5831
198.2	-71.7756
198.3	-71.9672
198.4	-72.1579
198.5	-72.3475
198.6	-72.5361
198.7	-72.7237
198.8	-72.9101
198.9	-73.0954
199	-73.2794
199.1	-73.4623
199.2	-73.6438
199.3	-73.824
199.4	-74.0029
199.5	-74.1804
199.6	-74.3565
199.7	-74.5311
199.8	-74.7042
199.9	-74.8757
200	-75.0457
200.1	-75.2142
200.2	-75.381
200.3	-75.5461
200.4	-75.7096
200.5	-75.8714
200.6	-76.0314
200.7	-76.1897
200.8	-76.3462
200.9	-76.5009
201	-76.6538
201.1	-76.8049
201.2	-76.9541
201.3	-77.1015
201.4	-77.247
201.5	-77.3906
201.6	-77.5323
201.7	-77.6721
201.8	-77.81
201.9	-77.9459
202	-78.0799
202.1	-78.212
202.2	-78.3421
202.3	-78.4703
202.4	-78.5966
202.5	-78.7209
202.6	-78.8433
202.7	-78.9638
202.8	-79.0823
202.9	-79.1989
203	-79.3136
203.1	-79.4264
203.2	-79.5373
203.3	-79.6463
203.4	-79.7534
203.5	-79.8586
203.6	-79.962
203.7	-80.0636
203.8	-80.1633
203.9	-80.2612
204	-80.3573
204.1	-80.4516
204.2	-80.5442
204.3	-80.635
204.4	-80.7241
204.5	-80.8114
204.6	-80.8971
204.7	-80.9811
204.8	-81.0634
204.9	-81.1442
205	-81.2233
205.1	-81.3008
205.2	-81.3767
205.3	-81.4511
205.4	-81.5239
205.5	-81.5953
205.6	-81.6652
205.7	-81.7336
205.8	-81.8005
205.9	-81.8661
206	-81.9302
206.1	-81.993
206.2	-82.0544
206.3	-82.1145
206.4	-82.1733
206.5	-82.2308
206.6	-82.287
206.7	-82.342
206.8	-82.3957
206.9	-82.4483
207	-82.4997
207.1	-82.55
207.2	-82.5991
207.3	-82.6471
207.4	-82.694
207.5	-82.7398
207.6	-82.7846
207.7	-82.8284
207.8	-82.8711
207.9	-82.9129
208	-82.9537
208.1	-82.9935
208.2	-83.0325
208.3	-83.0705
208.4	-83.1076
208.5	-83.1438
208.6	-83.1792
208.7	-83.2138
208.8	-83.2475
208.9	-83.2805
209	-83.3126
209.1	-83.344
209.2	-83.3746
209.3	-83.4045
209.4	-83.4337
209.5	-83.4622
209.6	-83.49
209.7	-83.5171
209.8	-83.5436
209.9	-83.5694
210	-83.5947
210.1	-83.6192
210.2	-83.6433
210.3	-83.6667
210.4	-83.6895
210.5	-83.7118
210.6	-83.7336
210.7	-83.7548
210.8	-83.7755
210.9	-83.7957
211	-83.8154
211.1	-83.8346
211.2	-83.8533
211.3	-83.8716
211.4	-83.8894
211.5	-83.9068
211.6	-83.9238
211.7	-83.9404
211.8	-83.9565
211.9	-83.9723
212	-83.9876
212.1	-84.0026
212.2	-84.0172
212.3	-84.0315
212.4	-84.0454
212.5	-84.059
212.6	-84.0722
212.7	-84.0851
212.8	-84.0977
212.9	-84.11
213	-84.122
213.1	-84.1337
213.2	-84.1451
213.3	-84.1562
213.4	-84.1671
213.5	-84.1776
213.6	-84.188
213.7	-84.1981
213.8	-84.2079
213.9	-84.2175
214	-84.2268
214.1	-84.236
214.2	-84.2449
214.3	-84.2536
214.4	-84.262
214.5	-84.2703
214.6	-84.2784
214.7	-84.2863
214.8	-84.294
214.9	-84.3015
215	-84.3088
215.1	-84.316
215.2	-84.3229
215.3	-84.3298
215.4	-84.3364
215.5	-84.3429
215.6	-84.3493
215.7	-84.3554
215.8	-84.3615
215.9	-84.3674
216	-84.3732
216.1	-84.3788
216.2	-84.3843
216.3	-84.3897
216.4	-84.3949
216.5	-84.4
216.6	-84.405
216.7	-84.4099
216.8	-84.4147
216.9	-84.4194
217	-84.4239
217.1	-84.4284
217.2	-84.4328
217.3	-84.437
217.4	-84.4412
217.5	-84.4453
217.6	-84.4493
217.7	-84.4531
217.8	-84.457
217.9	-84.4607
218	-84.4643
218.1	-84.4679
218.2	-84.4714
218.3	-84.4748
218.4	-84.4781
218.5	-84.4814
218.6	-84.4846
218.7	-84.4877
218.8	-84.4908
218.9	-84.4938
219	-84.4967
219.1	-84.4996
219.2	-84.5024
219.3	-84.5052
219.4	-84.5079
219.5	-84.5105
219.6	-84.5131
219.7	-84.5156
219.8	-84.5181
219.9	-84.5206
220	-84.523
220.1	-84.5253
220.2	-84.5276
220.3	-84.5299
220.4	-84.5321
220.5	-84.5343
220.6	-84.5364
220.7	-84.5385
220.8	-84.5406
220.9	-84.5426
221	-84.5446
221.1	-84.5465
221.2	-84.5484
221.3	-84.5503
221.4	-84.5521
221.5	-84.554
221.6	-84.5557
221.7	-84.5575
221.8	-84.5592
221.9	-84.5609
222	-84.5626
222.1	-84.5642
222.2	-84.5658
222.3	-84.5674
222.4	-84.569
222.5	-84.5705
222.6	-84.572
222.7	-84.5735
222.8	-84.575
222.9	-84.5764
223	-84.5778
223.1	-84.5792
223.2	-84.5806
223.3	-84.582
223.4	-84.5833
223.5	-84.5846
223.6	-84.5859
223.7	-84.5872
223.8	-84.5885
223.9	-84.5897
224	-84.591
224.1	-84.5922
224.2	-84.5934
224.3	-84.5946
224.4	-84.5957
224.5	-84.5969
224.6	-84.5981
224.7	-84.5992
224.8	-84.6003
224.9	-84.6014
225	-84.6025
225.1	-84.6036
225.2	-84.6046
225.3	-84.6057
225.4	-84.6067
225.5	-84.6078
225.6	-84.6088
225.7	-84.6098
225.8	-84.6108
225.9	-84.6118
226	-84.6128
226.1	-84.6138
226.2	-84.6147
226.3	-84.6157
226.4	-84.6166
226.5	-84.6176
226.6	-84.6185
226.7	-84.6194
226.8	-84.6203
226.9	-84.6212
227	-84.6221
227.1	-84.623
227.2	-84.6239
227.3	-84.6248
227.4	-84.6256
227.5	-84.6265
227.6	-84.6273
227.7	-84.6282
227.8	-84.629
227.9	-84.6299
228	-84.6307
228.1	-84.6315
228.2	-84.6323
228.3	-84.6332
228.4	-84.634
228.5	-84.6348
228.6	-84.6356
228.7	-84.6364
228.8	-84.6371
228.9	-84.6379
229	-84.6387
229.1	-84.6395
229.2	-84.6403
229.3	-84.641
229.4	-84.6418
229.5	-84.6425
229.6	-84.6433
229.7	-84.644
229.8	-84.6448
229.9	-84.6455
230	-84.6463
230.1	-84.647
230.2	-84.6477
230.3	-84.6485
230.4	-84.6492
230.5	-84.6499
230.6	-84.6506
230.7	-84.6513
230.8	-84.6521
230.9	-84.6528
231	-84.6535
231.1	-84.6542
231.2	-84.6549
231.3	-84.6556
231.4	-84.6563
231.5	-84.657
231.6	-84.6577
231.7	-84.6583
231.8	-84.659
231.9	-84.6597
232	-84.6604
232.1	-84.6611
232.2	-84.6618
232.3	-84.6624
232.4	-84.6631
232.5	-84.6638
232.6	-84.6644
232.7	-84.6651
232.8	-84.6658
232.9	-84.6664
233	-84.6671
233.1	-84.6678
233.2	-84.6684
233.3	-84.6691
233.4	-84.6697
233.5	-84.6704
233.6	-84.671
233.7	-84.6717
233.8	-84.6723
233.9	-84.673
234	-84.6736
234.1	-84.6743
234.2	-84.6749
234.3	-84.6755
234.4	-84.6762
234.5	-84.6768
234.6	-84.6774
234.7	-84.6781
234.8	-84.6787
234.9	-84.6793
235	-84.68
235.1	-84.6806
235.2	-84.6812
235.3	-84.6819
235.4	-84.6825
235.5	-84.6831
235.6	-84.6837
235.7	-84.6844
235.8	-84.685
235.9	-84.6856
236	-84.6862
236.1	-84.6868
236.2	-84.6875
236.3	-84.6881
236.4	-84.6887
236.5	-84.6893
236.6	-84.6899
236.7	-84.6905
236.8	-84.6911
236.9	-84.6917
237	-84.6924
237.1	-84.693
237.2	-84.6936
237.3	-84.6942
237.4	-84.6948
237.5	-84.6954
237.6	-84.696
237.7	-84.6966
237.8	-84.6972
237.9	-84.6978
238	-84.6984
238.1	-84.699
238.2	-84.6996
238.3	-84.7002
238.4	-84.7008
238.5	-84.7014
238.6	-84.702
238.7	-84.7026
238.8	-84.7032
238.9	-84.7038
239	-84.7044
239.1	-84.705
239.2	-84.7056
239.3	-84.7061
239.4	-84.7067
239.5	-84.7073
239.6	-84.7079
239.7	-84.7085
239.8	-84.7091
239.9	-84.7097
240	-84.7103
240.1	-84.7109
240.2	-84.7114
240.3	-84.712
240.4	-84.7126
240.5	-84.7132
240.6	-84.7138
240.7	-84.7144
240.8	-84.7149
240.9	-84.7155
241	-84.7161
241.1	-84.7167
241.2	-84.7173
241.3	-84.7178
241.4	-84.7184
241.5	-84.719
241.6	-84.7196
241.7	-84.7201
241.8	-84.7207
241.9	-84.7213
242	-84.7219
242.1	-84.7225
242.2	-84.723
242.3	-84.7236
242.4	-84.7242
242.5	-84.7247
242.6	-84.7253
242.7	-84.7259
242.8	-84.7265
242.9	-84.727
243	-84.7276
243.1	-84.7282
243.2	-84.7287
243.3	-84.7293
243.4	-84.7299
243.5	-84.7304
243.6	-84.731
243.7	-84.7316
243.8	-84.7321
243.9	-84.7327
244	-84.7333
244.1	-84.7338
244.2	-84.7344
244.3	-84.735
244.4	-84.7355
244.5	-84.7361
244.6	-84.7367
244.7	-84.7372
244.8	-84.7378
244.9	-84.7383
245	-84.7389
245.1	-84.7395
245.2	-84.74
245.3	-84.7406
245.4	-84.7411
245.5	-84.7417
245.6	-84.7422
245.7	-84.7428
245.8	-84.7434
245.9	-84.7439
246	-84.7445
246.1	-84.745
246.2	-84.7456
246.3	-84.7461
246.4	-84.7467
246.5	-84.7472
246.6	-84.7478
246.7	-84.7484
246.8	-84.7489
246.9	-84.7495
247	-84.75
247.1	-84.7506
247.2	-84.7511
247.3	-84.7517
247.4	-84.7522
247.5	-84.7528
247.6	-84.7533
247.7	-84.7539
247.8	-84.7544
247.9	-84.755
248	-84.7555
248.1	-84.756
248.2	-84.7566
248.3	-84.7571
248.4	-84.7577
248.5	-84.7582
248.6	-84.7588
248.7	-84.7593
248.8	-84.7599
248.9	-84.7604
249	-84.761
249.1	-84.7615
249.2	-84.762
249.3	-84.7626
249.4	-84.7631
249.5	-84.7637
249.6	-84.7642
249.7	-84.7647
249.8	-84.7653
249.9	-84.7658
250	-84.7664
250.1	-84.7669
250.2	-84.7674
250.3	-84.768
250.4	-84.7685
250.5	-84.7691
250.6	-84.7696
250.7	-84.7701
250.8	-84.7707
250.9	-84.7712
251	-84.7717
251.1	-84.7723
251.2	-84.7728
251.3	-84.7733
251.4	-84.7739
251.5	-84.7744
251.6	-84.7749
251.7	-84.7755
251.8	-84.776
251.9	-84.7765
252	-84.7771
252.1	-84.7776
252.2	-84.7781
252.3	-84.7787
252.4	-84.7792
252.5	-84.7797
252.6	-84.7802
252.7	-84.7808
252.8	-84.7813
252.9	-84.7818
253	-84.7824
253.1	-84.7829
253.2	-84.7834
253.3	-84.7839
253.4	-84.7845
253.5	-84.785
253.6	-84.7855
253.7	-84.786
253.8	-84.7866
253.9	-84.7871
254	-84.7876
254.1	-84.7881
254.2	-84.7887
254.3	-84.7892
254.4	-84.7897
254.5	-84.7902
254.6	-84.7908
254.7	-84.7913
254.8	-84.7918
254.9	-84.7923
255	-84.7928
255.1	-84.7934
255.2	-84.7939
255.3	-84.7944
255.4	-84.7949
255.5	-84.7954
255.6	-84.796
255.7	-84.7965
255.8	-84.797
255.9	-84.7975
256	-84.798
256.1	-84.7985
256.2	-84.7991
256.3	-84.7996
256.4	-84.8001
256.5	-84.8006
256.6	-84.8011
256.7	-84.8016
256.8	-84.8022
256.9	-84.8027
257	-84.8032
257.1	-84.8037
257.2	-84.8042
257.3	-84.8047
257.4	-84.8052
257.5	-84.8057
257.6	-84.8063
257.7	-84.8068
257.8	-84.8073
257.9	-84.8078
258	-84.8083
258.1	-84.8088
258.2	-84.8093
258.3	-84.8098
258.4	-84.8103
258.5	-84.8108
258.6	-84.8114
258.7	-84.8119
258.8	-84.8124
258.9	-84.8129
259	-84.8134
259.1	-84.8139
259.2	-84.8144
259.3	-84.8149
259.4	-84.8154
259.5	-84.8159
259.6	-84.8164
259.7	-84.8169
259.8	-84.8174
259.9	-84.8179
260	-84.8184
260.1	-84.8189
260.2	-84.8194
260.3	-84.8199
260.4	-84.8204
260.5	-84.8209
260.6	-84.8214
260.7	-84.8219
260.8	-84.8224
260.9	-84.8229
261	-84.8234
261.1	-84.8239
261.2	-84.8244
261.3	-84.8249
261.4	-84.8254
261.5	-84.8259
261.6	-84.8264
261.7	-84.8269
261.8	-84.8274
261.9	-84.8279
262	-84.8284
262.1	-84.8289
262.2	-84.8294
262.3	-84.8299
262.4	-84.8304
262.5	-84.8309
262.6	-84.8314
262.7	-84.8319
262.8	-84.8324
262.9	-84.8329
263	-84.8334
263.1	-84.8339
263.2	-84.8344
263.3	-84.8349
263.4	-84.8353
263.5	-84.8358
263.6	-84.8363
263.7	-84.8368
263.8	-84.8373
263.9	-84.8378
264	-84.8383
264.1	-84.8388
264.2	-84.8393
264.3	-84.8398
264.4	-84.8403
264.5	-84.8407
264.6	-84.8412
264.7	-84.8417
264.8	-84.8422
264.9	-84.8427
265	-84.8432
265.1	-84.8437
265.2	-84.8442
265.3	-84.8446
265.4	-84.8451
265.5	-84.8456
265.6	-84.8461
265.7	-84.8466
265.8	-84.8471
265.9	-84.8475
266	-84.848
266.1	-84.8485
266.2	-84.849
266.3	-84.8495
266.4	-84.85
266.5	-84.8504
266.6	-84.8509
266.7	-84.8514
266.8	-84.8519
266.9	-84.8524
267	-84.8529
267.1	-84.8533
267.2	-84.8538
267.3	-84.8543
267.4	-84.8548
267.5	-84.8553
267.6	-84.8557
267.7	-84.8562
267.8	-84.8567
267.9	-84.8572
268	-84.8576
268.1	-84.8581
268.2	-84.8586
268.3	-84.8591
268.4	-84.8596
268.5	-84.86
268.6	-84.8605
268.7	-84.861
268.8	-84.8615
268.9	-84.8619
269	-84.8624
269.1	-84.8629
269.2	-84.8634
269.3	-84.8638
269.4	-84.8643
269.5	-84.8648
269.6	-84.8652
269.7	-84.8657
269.8	-84.8662
269.9	-84.8667
270	-84.8671
270.1	-84.8676
270.2	-84.8681
270.3	-84.8686
270.4	-84.869
270.5	-84.8695
270.6	-84.87
270.7	-84.8704
270.8	-84.8709
270.9	-84.8714
271	-84.8718
271.1	-84.8723
271.2	-84.8728
271.3	-84.8732
271.4	-84.8737
271.5	-84.8742
271.6	-84.8746
271.7	-84.8751
271.8	-84.8756
271.9	-84.876
272	-84.8765
272.1	-84.877
272.2	-84.8774
272.3	-84.8779
272.4	-84.8784
272.5	-84.8788
272.6	-84.8793
272.7	-84.8798
272.8	-84.8802
272.9	-84.8807
273	-84.8812
273.1	-84.8816
273.2	-84.8821
273.3	-84.8825
273.4	-84.883
273.5	-84.8835
273.6	-84.8839
273.7	-84.8844
273.8	-84.8848
273.9	-84.8853
274	-84.8858
274.1	-84.8862
274.2	-84.8867
274.3	-84.8871
274.4	-84.8876
274.5	-84.8881
274.6	-84.8885
274.7	-84.889
274.8	-84.8894
274.9	-84.8899
275	-84.8903
275.1	-84.8908
275.2	-84.8913
275.3	-84.8917
275.4	-84.8922
275.5	-84.8926
275.6	-84.8931
275.7	-84.8935
275.8	-84.894
275.9	-84.8944
276	-84.8949
276.1	-84.8954
276.2	-84.8958
276.3	-84.8963
276.4	-84.8967
276.5	-84.8972
276.6	-84.8976
276.7	-84.8981
276.8	-84.8985
276.9	-84.899
277	-84.8994
277.1	-84.8999
277.2	-84.9003
277.3	-84.9008
277.4	-84.9012
277.5	-84.9017
277.6	-84.9021
277.7	-84.9026
277.8	-84.903
277.9	-84.9035
278	-84.9039
278.1	-84.9044
278.2	-84.9048
278.3	-84.9053
278.4	-84.9057
278.5	-84.9062
278.6	-84.9066
278.7	-84.9071
278.8	-84.9075
278.9	-84.908
279	-84.9084
279.1	-84.9088
279.2	-84.9093
279.3	-84.9097
279.4	-84.9102
279.5	-84.9106
279.6	-84.9111
279.7	-84.9115
279.8	-84.912
279.9	-84.9124
280	-84.9128
280.1	-84.9133
280.2	-84.9137
280.3	-84.9142
280.4	-84.9146
280.5	-84.9151
280.6	-84.9155
280.7	-84.9159
280.8	-84.9164
280.9	-84.9168
281	-84.9173
281.1	-84.9177
281.2	-84.9181
281.3	-84.9186
281.4	-84.919
281.5	-84.9195
281.6	-84.9199
281.7	-84.9203
281.8	-84.9208
281.9	-84.9212
282	-84.9217
282.1	-84.9221
282.2	-84.9225
282.3	-84.923
282.4	-84.9234
282.5	-84.9238
282.6	-84.9243
282.7	-84.9247
282.8	-84.9251
282.9	-84.9256
283	-84.926
283.1	-84.9264
283.2	-84.9269
283.3	-84.9273
283.4	-84.9278
283.5	-84.9282
283.6	-84.9286
283.7	-84.9291
283.8	-84.9295
283.9	-84.9299
284	-84.9303
284.1	-84.9308
284.2	-84.9312
284.3	-84.9316
284.4	-84.9321
284.5	-84.9325
284.6	-84.9329
284.7	-84.9334
284.8	-84.9338
284.9	-84.9342
285	-84.9347
285.1	-84.9351
285.2	-84.9355
285.3	-84.9359
285.4	-84.9364
285.5	-84.9368
285.6	-84.9372
285.7	-84.9377
285.8	-84.9381
285.9	-84.9385
286	-84.9389
286.1	-84.9394
286.2	-84.9398
286.3	-84.9402
286.4	-84.9407
286.5	-84.9411
286.6	-84.9415
286.7	-84.9419
286.8	-84.9424
286.9	-84.9428
287	-84.9432
287.1	-84.9436
287.2	-84.9441
287.3	-84.9445
287.4	-84.9449
287.5	-84.9453
287.6	-84.9457
287.7	-84.9462
287.8	-84.9466
287.9	-84.947
288	-84.9474
288.1	-84.9479
288.2	-84.9483
288.3	-84.9487
288.4	-84.9491
288.5	-84.9495
288.6	-84.95
288.7	-84.9504
288.8	-84.9508
288.9	-84.9512
289	-84.9516
289.1	-84.9521
289.2	-84.9525
289.3	-84.9529
289.4	-84.9533
289.5	-84.9537
289.6	-84.9542
289.7	-84.9546
289.8	-84.955
289.9	-84.9554
290	-84.9558
290.1	-84.9562
290.2	-84.9567
290.3	-84.9571
290.4	-84.9575
290.5	-84.9579
290.6	-84.9583
290.7	-84.9587
290.8	-84.9592
290.9	-84.9596
291	-84.96
291.1	-84.9604
291.2	-84.9608
291.3	-84.9612
291.4	-84.9616
291.5	-84.9621
291.6	-84.9625
291.7	-84.9629
291.8	-84.9633
291.9	-84.9637
292	-84.9641
292.1	-84.9645
292.2	-84.9649
292.3	-84.9654
292.4	-84.9658
292.5	-84.9662
292.6	-84.9666
292.7	-84.967
292.8	-84.9674
292.9	-84.9678
293	-84.9682
293.1	-84.9686
293.2	-84.969
293.3	-84.9695
293.4	-84.9699
293.5	-84.9703
293.6	-84.9707
293.7	-84.9711
293.8	-84.9715
293.9	-84.9719
294	-84.9723
294.1	-84.9727
294.2	-84.9731
294.3	-84.9735
294.4	-84.9739
294.5	-84.9743
294.6	-84.9748
294.7	-84.9752
294.8	-84.9756
294.9	-84.976
295	-84.9764
295.1	-84.9768
295.2	-84.9772
295.3	-84.9776
295.4	-84.978
295.5	-84.9784
295.6	-84.9788
295.7	-84.9792
295.8	-84.9796
295.9	-84.98
296	-84.9804
296.1	-84.9808
296.2	-84.9812
296.3	-84.9816
296.4	-84.982
296.5	-84.9824
296.6	-84.9828
296.7	-84.9832
296.8	-84.9836
296.9	-84.984
297	-84.9844
297.1	-84.9848
297.2	-84.9852
297.3	-84.9856
297.4	-84.986
297.5	-84.9864
297.6	-84.9868
297.7	-84.9872
297.8	-84.9876
297.9	-84.988
298	-84.9884
298.1	-84.9888
298.2	-84.9892
298.3	-84.9896
298.4	-84.99
298.5	-84.9904
298.6	-84.9908
298.7	-84.9912
298.8	-84.9916
298.9	-84.992
299	-84.9924
299.1	-84.9928
299.2	-84.9932
299.3	-84.9936
299.4	-84.994
299.5	-84.9944
299.6	-84.9947
299.7	-84.9951
299.8	-84.9955
299.9	-84.9959
300	-84.9963
300.1	-84.9967
300.2	-84.9971
300.3	-84.9975
300.4	-84.9979
300.5	-84.9983
300.6	-84.9987
300.7	-84.9991
300.8	-84.9995
300.9	-84.9998
301	-85.0002
301.1	-85.0006
301.2	-85.001
301.3	-85.0014
301.4	-85.0018
301.5	-85.0022
301.6	-85.0026
301.7	-85.003
301.8	-85.0034
301.9	-85.0037
302	-85.0041
302.1	-85.0045
302.2	-85.0049
302.3	-85.0053
302.4	-85.0057
302.5	-85.0061
302.6	-85.0065
302.7	-85.0069
302.8	-85.0072
302.9	-85.0076
303	-85.008
303.1	-85.0084
303.2	-85.0088
303.3	-85.0092
303.4	-85.0096
303.5	-85.0099
303.6	-85.0103
303.7	-85.0107
303.8	-85.0111
303.9	-85.0115
304	-85.0119
304.1	-85.0122
304.2	-85.0126
304.3	-85.013
304.4	-85.0134
304.5	-85.0138
304.6	-85.0142
304.7	-85.0145
304.8	-85.0149
304.9	-85.0153
305	-85.0157
305.1	-85.0161
305.2	-85.0165
305.3	-85.0168
305.4	-85.0172
305.5	-85.0176
305.6	-85.018
305.7	-85.0184
305.8	-85.0187
305.9	-85.0191
306	-85.0195
306.1	-85.0199
306.2	-85.0203
306.3	-85.0206
306.4	-85.021
306.5	-85.0214
306.6	-85.0218
306.7	-85.0222
306.8	-85.0225
306.9	-85.0229
307	-85.0233
307.1	-85.0237
307.2	-85.024
307.3	-85.0244
307.4	-85.0248
307.5	-85.0252
307.6	-85.0255
307.7	-85.0259
307.8	-85.0263
307.9	-85.0267
308	-85.027
308.1	-85.0274
308.2	-85.0278
308.3	-85.0282
308.4	-85.0285
308.5	-85.0289
308.6	-85.0293
308.7	-85.0297
308.8	-85.03
308.9	-85.0304
309	-85.0308
309.1	-85.0312
309.2	-85.0315
309.3	-85.0319
309.4	-85.0323
309.5	-85.0327
309.6	-85.033
309.7	-85.0334
309.8	-85.0338
309.9	-85.0341
310	-85.0345
310.1	-85.0349
310.2	-85.0353
310.3	-85.0356
310.4	-85.036
310.5	-85.0364
310.6	-85.0367
310.7	-85.0371
310.8	-85.0375
310.9	-85.0378
311	-85.0382
311.1	-85.0386
311.2	-85.039
311.3	-85.0393
311.4	-85.0397
311.5	-85.0401
311.6	-85.0404
311.7	-85.0408
311.8	-85.0412
311.9	-85.0415
312	-85.0419
312.1	-85.0423
312.2	-85.0426
312.3	-85.043
312.4	-85.0434
312.5	-85.0437
312.6	-85.0441
312.7	-85.0445
312.8	-85.0448
312.9	-85.0452
313	-85.0455
313.1	-85.0459
313.2	-85.0463
313.3	-85.0466
313.4	-85.047
313.5	-85.0474
313.6	-85.0477
313.7	-85.0481
313.8	-85.0485
313.9	-85.0488
314	-85.0492
314.1	-85.0495
314.2	-85.0499
314.3	-85.0503
314.4	-85.0506
314.5	-85.051
314.6	-85.0514
314.7	-85.0517
314.8	-85.0521
314.9	-85.0524
315	-85.0528
315.1	-85.0532
315.2	-85.0535
315.3	-85.0539
315.4	-85.0542
315.5	-85.0546
315.6	-85.055
315.7	-85.0553
315.8	-85.0557
315.9	-85.056
316	-85.0564
316.1	-85.0568
316.2	-85.0571
316.3	-85.0575
316.4	-85.0578
316.5	-85.0582
316.6	-85.0585
316.7	-85.0589
316.8	-85.0593
316.9	-85.0596
317	-85.06
317.1	-85.0603
317.2	-85.0607
317.3	-85.061
317.4	-85.0614
317.5	-85.0618
317.6	-85.0621
317.7	-85.0625
317.8	-85.0628
317.9	-85.0632
318	-85.0635
318.1	-85.0639
318.2	-85.0642
318.3	-85.0646
318.4	-85.0649
318.5	-85.0653
318.6	-85.0657
318.7	-85.066
318.8	-85.0664
318.9	-85.0667
319	-85.0671
319.1	-85.0674
319.2	-85.0678
319.3	-85.0681
319.4	-85.0685
319.5	-85.0688
319.6	-85.0692
319.7	-85.0695
319.8	-85.0699
319.9	-85.0702
320	-85.0706
320.1	-85.0709
320.2	-85.0713
320.3	-85.0716
320.4	-85.072
320.5	-85.0723
320.6	-85.0727
320.7	-85.073
320.8	-85.0734
320.9	-85.0737
321	-85.0741
321.1	-85.0744
321.2	-85.0748
321.3	-85.0751
321.4	-85.0755
321.5	-85.0758
321.6	-85.0762
321.7	-85.0765
321.8	-85.0769
321.9	-85.0772
322	-85.0776
322.1	-85.0779
322.2	-85.0782
322.3	-85.0786
322.4	-85.0789
322.5	-85.0793
322.6	-85.0796
322.7	-85.08
322.8	-85.0803
322.9	-85.0807
323	-85.081
323.1	-85.0814
323.2	-85.0817
323.3	-85.082
323.4	-85.0824
323.5	-85.0827
323.6	-85.0831
323.7	-85.0834
323.8	-85.0838
323.9	-85.0841
324	-85.0844
324.1	-85.0848
324.2	-85.0851
324.3	-85.0855
324.4	-85.0858
324.5	-85.0862
324.6	-85.0865
324.7	-85.0868
324.8	-85.0872
324.9	-85.0875
325	-85.0879
325.1	-85.0882
325.2	-85.0885
325.3	-85.0889
325.4	-85.0892
325.5	-85.0896
325.6	-85.0899
325.7	-85.0902
325.8	-85.0906
325.9	-85.0909
326	-85.0913
326.1	-85.0916
326.2	-85.0919
326.3	-85.0923
326.4	-85.0926
326.5	-85.093
326.6	-85.0933
326.7	-85.0936
326.8	-85.094
326.9	-85.0943
327	-85.0946
327.1	-85.095
327.2	-85.0953
327.3	-85.0957
327.4	-85.096
327.5	-85.0963
327.6	-85.0967
327.7	-85.097
327.8	-85.0973
327.9	-85.0977
328	-85.098
328.1	-85.0983
328.2	-85.0987
328.3	-85.099
328.4	-85.0993
328.5	-85.0997
328.6	-85.1
328.7	-85.1003
328.8	-85.1007
328.9	-85.101
329	-85.1013
329.1	-85.1017
329.2	-85.102
329.3	-85.1023
329.4	-85.1027
329.5	-85.103
329.6	-85.1033
329.7	-85.1037
329.8	-85.104
329.9	-85.1043
330	-85.1047
330.1	-85.105
330.2	-85.1053
330.3	-85.1057
330.4	-85.106
330.5	-85.1063
330.6	-85.1067
330.7	-85.107
330.8	-85.1073
330.9	-85.1076
331	-85.108
331.1	-85.1083
331.2	-85.1086
331.3	-85.109
331.4	-85.1093
331.5	-85.1096
331.6	-85.1099
331.7	-85.1103
331.8	-85.1106
331.9	-85.1109
332	-85.1113
332.1	-85.1116
332.2	-85.1119
332.3	-85.1122
332.4	-85.1126
332.5	-85.1129
332.6	-85.1132
332.7	-85.1136
332.8	-85.1139
332.9	-85.1142
333	-85.1145
333.1	-85.1149
333.2	-85.1152
333.3	-85.1155
333.4	-85.1158
333.5	-85.1162
333.6	-85.1165
333.7	-85.1168
333.8	-85.1171
333.9	-85.1175
334	-85.1178
334.1	-85.1181
334.2	-85.1184
334.3	-85.1188
334.4	-85.1191
334.5	-85.1194
334.6	-85.1197
334.7	-85.12
334.8	-85.1204
334.9	-85.1207
335	-85.121
335.1	-85.1213
335.2	-85.1217
335.3	-85.122
335.4	-85.1223
335.5	-85.1226
335.6	-85.1229
335.7	-85.1233
335.8	-85.1236
335.9	-85.1239
336	-85.1242
336.1	-85.1245
336.2	-85.1249
336.3	-85.1252
336.4	-85.1255
336.5	-85.1258
336.6	-85.1261
336.7	-85.1265
336.8	-85.1268
336.9	-85.1271
337	-85.1274
337.1	-85.1277
337.2	-85.1281
337.3	-85.1284
337.4	-85.1287
337.5	-85.129
337.6	-85.1293
337.7	-85.1297
337.8	-85.13
337.9	-85.1303
338	-85.1306
338.1	-85.1309
338.2	-85.1312
338.3	-85.1316
338.4	-85.1319
338.5	-85.1322
338.6	-85.1325
338.7	-85.1328
338.8	-85.1331
338.9	-85.1335
339	-85.1338
339.1	-85.1341
339.2	-85.1344
339.3	-85.1347
339.4	-85.135
339.5	-85.1353
339.6	-85.1357
339.7	-85.136
339.8	-85.1363
339.9	-85.1366
340	-85.1369
340.1	-85.1372
340.2	-85.1375
340.3	-85.1379
340.4	-85.1382
340.5	-85.1385
340.6	-85.1388
340.7	-85.1391
340.8	-85.1394
340.9	-85.1397
341	-85.14
341.1	-85.1404
341.2	-85.1407
341.3	-85.141
341.4	-85.1413
341.5	-85.1416
341.6	-85.1419
341.7	-85.1422
341.8	-85.1425
341.9	-85.1428
342	-85.1431
342.1	-85.1435
342.2	-85.1438
342.3	-85.1441
342.4	-85.1444
342.5	-85.1447
342.6	-85.145
342.7	-85.1453
342.8	-85.1456
342.9	-85.1459
343	-85.1462
343.1	-85.1466
343.2	-85.1469
343.3	-85.1472
343.4	-85.1475
343.5	-85.1478
343.6	-85.1481
343.7	-85.1484
343.8	-85.1487
343.9	-85.149
344	-85.1493
344.1	-85.1496
344.2	-85.1499
344.3	-85.1502
344.4	-85.1505
344.5	-85.1509
344.6	-85.1512
344.7	-85.1515
344.8	-85.1518
344.9	-85.1521
345	-85.1524
345.1	-85.1527
345.2	-85.153
345.3	-85.1533
345.4	-85.1536
345.5	-85.1539
345.6	-85.1542
345.7	-85.1545
345.8	-85.1548
345.9	-85.1551
346	-85.1554
346.1	-85.1557
346.2	-85.156
346.3	-85.1563
346.4	-85.1566
346.5	-85.1569
346.6	-85.1572
346.7	-85.1575
346.8	-85.1578
346.9	-85.1581
347	-85.1584
347.1	-85.1588
347.2	-85.1591
347.3	-85.1594
347.4	-85.1597
347.5	-85.16
347.6	-85.1603
347.7	-85.1606
347.8	-85.1609
347.9	-85.1612
348	-85.1615
348.1	-85.1618
348.2	-85.1621
348.3	-85.1624
348.4	-85.1627
348.5	-85.163
348.6	-85.1633
348.7	-85.1636
348.8	-85.1639
348.9	-85.1642
349	-85.1645
349.1	-85.1648
349.2	-85.165
349.3	-85.1653
349.4	-85.1656
349.5	-85.1659
349.6	-85.1662
349.7	-85.1665
349.8	-85.1668
349.9	-85.1671
350	-85.1674
350.1	-85.1677
350.2	-85.168
350.3	-85.1683
350.4	-85.1686
350.5	-85.1689
350.6	-85.1692
350.7	-85.1695
350.8	-85.1698
350.9	-85.1701
351	-85.1704
351.1	-85.1707
351.2	-85.171
351.3	-85.1713
351.4	-85.1716
351.5	-85.1719
351.6	-85.1722
351.7	-85.1725
351.8	-85.1727
351.9	-85.173
352	-85.1733
352.1	-85.1736
352.2	-85.1739
352.3	-85.1742
352.4	-85.1745
352.5	-85.1748
352.6	-85.1751
352.7	-85.1754
352.8	-85.1757
352.9	-85.176
353	-85.1763
353.1	-85.1766
353.2	-85.1768
353.3	-85.1771
353.4	-85.1774
353.5	-85.1777
353.6	-85.178
353.7	-85.1783
353.8	-85.1786
353.9	-85.1789
354	-85.1792
354.1	-85.1795
354.2	-85.1798
354.3	-85.1801
354.4	-85.1803
354.5	-85.1806
354.6	-85.1809
354.7	-85.1812
354.8	-85.1815
354.9	-85.1818
355	-85.1821
355.1	-85.1824
355.2	-85.1827
355.3	-85.1829
355.4	-85.1832
355.5	-85.1835
355.6	-85.1838
355.7	-85.1841
355.8	-85.1844
355.9	-85.1847
356	-85.185
356.1	-85.1852
356.2	-85.1855
356.3	-85.1858
356.4	-85.1861
356.5	-85.1864
356.6	-85.1867
356.7	-85.187
356.8	-85.1873
356.9	-85.1875
357	-85.1878
357.1	-85.1881
357.2	-85.1884
357.3	-85.1887
357.4	-85.189
357.5	-85.1893
357.6	-85.1895
357.7	-85.1898
357.8	-85.1901
357.9	-85.1904
358	-85.1907
358.1	-85.191
358.2	-85.1912
358.3	-85.1915
358.4	-85.1918
358.5	-85.1921
358.6	-85.1924
358.7	-85.1927
358.8	-85.1929
358.9	-85.1932
359	-85.1935
359.1	-85.1938
359.2	-85.1941
359.3	-85.1944
359.4	-85.1946
359.5	-85.1949
359.6	-85.1952
359.7	-85.1955
359.8	-85.1958
359.9	-85.1961
360	-85.1963
360.1	-85.1966
360.2	-85.1969
360.3	-85.1972
360.4	-85.1975
360.5	-85.1977
360.6	-85.198
360.7	-85.1983
360.8	-85.1986
360.9	-85.1989
361	-85.1991
361.1	-85.1994
361.2	-85.1997
361.3	-85.2
361.4	-85.2003
361.5	-85.2005
361.6	-85.2008
361.7	-85.2011
361.8	-85.2014
361.9	-85.2017
362	-85.2019
362.1	-85.2022
362.2	-85.2025
362.3	-85.2028
362.4	-85.203
362.5	-85.2033
362.6	-85.2036
362.7	-85.2039
362.8	-85.2042
362.9	-85.2044
363	-85.2047
363.1	-85.205
363.2	-85.2053
363.3	-85.2055
363.4	-85.2058
363.5	-85.2061
363.6	-85.2064
363.7	-85.2066
363.8	-85.2069
363.9	-85.2072
364	-85.2075
364.1	-85.2077
364.2	-85.208
364.3	-85.2083
364.4	-85.2086
364.5	-85.2088
364.6	-85.2091
364.7	-85.2094
364.8	-85.2097
364.9	-85.2099
365	-85.2102
365.1	-85.2105
365.2	-85.2108
365.3	-85.211
365.4	-85.2113
365.5	-85.2116
365.6	-85.2119
365.7	-85.2121
365.8	-85.2124
365.9	-85.2127
366	-85.2129
366.1	-85.2132
366.2	-85.2135
366.3	-85.2138
366.4	-85.214
366.5	-85.2143
366.6	-85.2146
366.7	-85.2148
366.8	-85.2151
366.9	-85.2154
367	-85.2157
367.1	-85.2159
367.2	-85.2162
367.3	-85.2165
367.4	-85.2167
367.5	-85.217
367.6	-85.2173
367.7	-85.2176
367.8	-85.2178
367.9	-85.2181
368	-85.2184
368.1	-85.2186
368.2	-85.2189
368.3	-85.2192
368.4	-85.2194
368.5	-85.2197
368.6	-85.22
368.7	-85.2202
368.8	-85.2205
368.9	-85.2208
369	-85.2211
369.1	-85.2213
369.2	-85.2216
369.3	-85.2219
369.4	-85.2221
369.5	-85.2224
369.6	-85.2227
369.7	-85.2229
369.8	-85.2232
369.9	-85.2235
370	-85.2237
370.1	-85.224
370.2	-85.2243
370.3	-85.2245
370.4	-85.2248
370.5	-85.2251
370.6	-85.2253
370.7	-85.2256
370.8	-85.2259
370.9	-85.2261
371	-85.2264
371.1	-85.2266
371.2	-85.2269
371.3	-85.2272
371.4	-85.2274
371.5	-85.2277
371.6	-85.228
371.7	-85.2282
371.8	-85.2285
371.9	-85.2288
372	-85.229
372.1	-85.2293
372.2	-85.2296
372.3	-85.2298
372.4	-85.2301
372.5	-85.2303
372.6	-85.2306
372.7	-85.2309
372.8	-85.2311
372.9	-85.2314
373	-85.2317
373.1	-85.2319
373.2	-85.2322
373.3	-85.2324
373.4	-85.2327
373.5	-85.233
373.6	-85.2332
373.7	-85.2335
373.8	-85.2338
373.9	-85.234
374	-85.2343
374.1	-85.2345
374.2	-85.2348
374.3	-85.2351
374.4	-85.2353
374.5	-85.2356
374.6	-85.2358
374.7	-85.2361
374.8	-85.2364
374.9	-85.2366
375	-85.2369
375.1	-85.2371
375.2	-85.2374
375.3	-85.2377
375.4	-85.2379
375.5	-85.2382
375.6	-85.2384
375.7	-85.2387
375.8	-85.239
375.9	-85.2392
376	-85.2395
376.1	-85.2397
376.2	-85.24
376.3	-85.2402
376.4	-85.2405
376.5	-85.2408
376.6	-85.241
376.7	-85.2413
376.8	-85.2415
376.9	-85.2418
377	-85.242
377.1	-85.2423
377.2	-85.2426
377.3	-85.2428
377.4	-85.2431
377.5	-85.2433
377.6	-85.2436
377.7	-85.2438
377.8	-85.2441
377.9	-85.2444
378	-85.2446
378.1	-85.2449
378.2	-85.2451
378.3	-85.2454
378.4	-85.2456
378.5	-85.2459
378.6	-85.2461
378.7	-85.2464
378.8	-85.2466
378.9	-85.2469
379	-85.2472
379.1	-85.2474
379.2	-85.2477
379.3	-85.2479
379.4	-85.2482
379.5	-85.2484
379.6	-85.2487
379.7	-85.2489
379.8	-85.2492
379.9	-85.2494
380	-85.2497
380.1	-85.2499
380.2	-85.2502
380.3	-85.2505
380.4	-85.2507
380.5	-85.251
380.6	-85.2512
380.7	-85.2515
380.8	-85.2517
380.9	-85.252
381	-85.2522
381.1	-85.2525
381.2	-85.2527
381.3	-85.253
381.4	-85.2532
381.5	-85.2535
381.6	-85.2537
381.7	-85.254
381.8	-85.2542
381.9	-85.2545
382	-85.2547
382.1	-85.255
382.2	-85.2552
382.3	-85.2555
382.4	-85.2557
382.5	-85.256
382.6	-85.2562
382.7	-85.2565
382.8	-85.2567
382.9	-85.257
383	-85.2572
383.1	-85.2575
383.2	-85.2577
383.3	-85.258
383.4	-85.2582
383.5	-85.2585
383.6	-85.2587
383.7	-85.259
383.8	-85.2592
383.9	-85.2595
384	-85.2597
384.1	-85.26
384.2	-85.2602
384.3	-85.2604
384.4	-85.2607
384.5	-85.2609
384.6	-85.2612
384.7	-85.2614
384.8	-85.2617
384.9	-85.2619
385	-85.2622
385.1	-85.2624
385.2	-85.2627
385.3	-85.2629
385.4	-85.2632
385.5	-85.2634
385.6	-85.2636
385.7	-85.2639
385.8	-85.2641
385.9	-85.2644
386	-85.2646
386.1	-85.2649
386.2	-85.2651
386.3	-85.2654
386.4	-85.2656
386.5	-85.2659
386.6	-85.2661
386.7	-85.2663
386.8	-85.2666
386.9	-85.2668
387	-85.2671
387.1	-85.2673
387.2	-85.2676
387.3	-85.2678
387.4	-85.268
387.5	-85.2683
387.6	-85.2685
387.7	-85.2688
387.8	-85.269
387.9	-85.2693
388	-85.2695
388.1	-85.2697
388.2	-85.27
388.3	-85.2702
388.4	-85.2705
388.5	-85.2707
388.6	-85.271
388.7	-85.2712
388.8	-85.2714
388.9	-85.2717
389	-85.2719
389.1	-85.2722
389.2	-85.2724
389.3	-85.2726
389.4	-85.2729
389.5	-85.2731
389.6	-85.2734
389.7	-85.2736
389.8	-85.2738
389.9	-85.2741
390	-85.2743
390.1	-85.2746
390.2	-85.2748
390.3	-85.275
390.4	-85.2753
390.5	-85.2755
390.6	-85.2758
390.7	-85.276
390.8	-85.2762
390.9	-85.2765
391	-85.2767
391.1	-85.277
391.2	-85.2772
391.3	-85.2774
391.4	-85.2777
391.5	-85.2779
391.6	-85.2782
391.7	-85.2784
391.8	-85.2786
391.9	-85.2789
392	-85.2791
392.1	-85.2793
392.2	-85.2796
392.3	-85.2798
392.4	-85.2801
392.5	-85.2803
392.6	-85.2805
392.7	-85.2808
392.8	-85.281
392.9	-85.2812
393	-85.2815
393.1	-85.2817
393.2	-85.2819
393.3	-85.2822
393.4	-85.2824
393.5	-85.2827
393.6	-85.2829
393.7	-85.2831
393.8	-85.2834
393.9	-85.2836
394	-85.2838
394.1	-85.2841
394.2	-85.2843
394.3	-85.2845
394.4	-85.2848
394.5	-85.285
394.6	-85.2852
394.7	-85.2855
394.8	-85.2857
394.9	-85.2859
395	-85.2862
395.1	-85.2864
395.2	-85.2866
395.3	-85.2869
395.4	-85.2871
395.5	-85.2873
395.6	-85.2876
395.7	-85.2878
395.8	-85.288
395.9	-85.2883
396	-85.2885
396.1	-85.2887
396.2	-85.289
396.3	-85.2892
396.4	-85.2894
396.5	-85.2897
396.6	-85.2899
396.7	-85.2901
396.8	-85.2904
396.9	-85.2906
397	-85.2908
397.1	-85.2911
397.2	-85.2913
397.3	-85.2915
397.4	-85.2917
397.5	-85.292
397.6	-85.2922
397.7	-85.2924
397.8	-85.2927
397.9	-85.2929
398	-85.2931
398.1	-85.2934
398.2	-85.2936
398.3	-85.2938
398.4	-85.294
398.5	-85.2943
398.6	-85.2945
398.7	-85.2947
398.8	-85.295
398.9	-85.2952
399	-85.2954
399.1	-85.2957
399.2	-85.2959
399.3	-85.2961
399.4	-85.2963
399.5	-85.2966
399.6	-85.2968
399.7	-85.297
399.8	-85.2973
399.9	-85.2975
400	-85.2977
400.1	-85.2979
400.2	-85.2982
400.3	-85.2984
400.4	-85.2986
400.5	-85.2988
400.6	-85.2991
400.7	-85.2993
400.8	-85.2995
400.9	-85.2998
401	-85.3
401.1	-85.3002
401.2	-85.3004
401.3	-85.3007
401.4	-85.3009
401.5	-85.3011
401.6	-85.3013
401.7	-85.3016
401.8	-85.3018
401.9	-85.302
402	-85.3022
402.1	-85.3025
402.2	-85.3027
402.3	-85.3029
402.4	-85.3031
402.5	-85.3034
402.6	-85.3036
402.7	-85.3038
402.8	-85.304
402.9	-85.3043
403	-85.3045
403.1	-85.3047
403.2	-85.3049
403.3	-85.3052
403.4	-85.3054
403.5	-85.3056
403.6	-85.3058
403.7	-85.3061
403.8	-85.3063
403.9	-85.3065
404	-85.3067
404.1	-85.3069
404.2	-85.3072
404.3	-85.3074
404.4	-85.3076
404.5	-85.3078
404.6	-85.3081
404.7	-85.3083
404.8	-85.3085
404.9	-85.3087
405	-85.309
405.1	-85.3092
405.2	-85.3094
405.3	-85.3096
405.4	-85.3098
405.5	-85.3101
405.6	-85.3103
405.7	-85.3105
405.8	-85.3107
405.9	-85.3109
406	-85.3112
406.1	-85.3114
406.2	-85.3116
406.3	-85.3118
406.4	-85.312
406.5	-85.3123
406.6	-85.3125
406.7	-85.3127
406.8	-85.3129
406.9	-85.3131
407	-85.3134
407.1	-85.3136
407.2	-85.3138
407.3	-85.314
407.4	-85.3142
407.5	-85.3145
407.6	-85.3147
407.7	-85.3149
407.8	-85.3151
407.9	-85.3153
408	-85.3156
408.1	-85.3158
408.2	-85.316
408.3	-85.3162
408.4	-85.3164
408.5	-85.3167
408.6	-85.3169
408.7	-85.3171
408.8	-85.3173
408.9	-85.3175
409	-85.3177
409.1	-85.318
409.2	-85.3182
409.3	-85.3184
409.4	-85.3186
409.5	-85.3188
409.6	-85.319
409.7	-85.3193
409.8	-85.3195
409.9	-85.3197
410	-85.3199
410.1	-85.3201
410.2	-85.3203
410.3	-85.3206
410.4	-85.3208
410.5	-85.321
410.6	-85.3212
410.7	-85.3214
410.8	-85.3216
410.9	-85.3218
411	-85.3221
411.1	-85.3223
411.2	-85.3225
411.3	-85.3227
411.4	-85.3229
411.5	-85.3231
411.6	-85.3234
411.7	-85.3236
411.8	-85.3238
411.9	-85.324
412	-85.3242
412.1	-85.3244
412.2	-85.3246
412.3	-85.3249
412.4	-85.3251
412.5	-85.3253
412.6	-85.3255
412.7	-85.3257
412.8	-85.3259
412.9	-85.3261
413	-85.3263
413.1	-85.3266
413.2	-85.3268
413.3	-85.327
413.4	-85.3272
413.5	-85.3274
413.6	-85.3276
413.7	-85.3278
413.8	-85.328
413.9	-85.3283
414	-85.3285
414.1	-85.3287
414.2	-85.3289
414.3	-85.3291
414.4	-85.3293
414.5	-85.3295
414.6	-85.3297
414.7	-85.33
414.8	-85.3302
414.9	-85.3304
415	-85.3306
415.1	-85.3308
415.2	-85.331
415.3	-85.3312
415.4	-85.3314
415.5	-85.3316
415.6	-85.3318
415.7	-85.3321
415.8	-85.3323
415.9	-85.3325
416	-85.3327
416.1	-85.3329
416.2	-85.3331
416.3	-85.3333
416.4	-85.3335
416.5	-85.3337
416.6	-85.3339
416.7	-85.3342
416.8	-85.3344
416.9	-85.3346
417	-85.3348
417.1	-85.335
417.2	-85.3352
417.3	-85.3354
417.4	-85.3356
417.5	-85.3358
417.6	-85.336
417.7	-85.3362
417.8	-85.3364
417.9	-85.3367
418	-85.3369
418.1	-85.3371
418.2	-85.3373
418.3	-85.3375
418.4	-85.3377
418.5	-85.3379
418.6	-85.3381
418.7	-85.3383
418.8	-85.3385
418.9	-85.3387
419	-85.3389
419.1	-85.3391
419.2	-85.3393
419.3	-85.3396
419.4	-85.3398
419.5	-85.34
419.6	-85.3402
419.7	-85.3404
419.8	-85.3406
419.9	-85.3408
420	-85.341
420.1	-85.3412
420.2	-85.3414
420.3	-85.3416
420.4	-85.3418
420.5	-85.342
420.6	-85.3422
420.7	-85.3424
420.8	-85.3426
420.9	-85.3428
421	-85.343
421.1	-85.3432
421.2	-85.3435
421.3	-85.3437
421.4	-85.3439
421.5	-85.3441
421.6	-85.3443
421.7	-85.3445
421.8	-85.3447
421.9	-85.3449
422	-85.3451
422.1	-85.3453
422.2	-85.3455
422.3	-85.3457
422.4	-85.3459
422.5	-85.3461
422.6	-85.3463
422.7	-85.3465
422.8	-85.3467
422.9	-85.3469
423	-85.3471
423.1	-85.3473
423.2	-85.3475
423.3	-85.3477
423.4	-85.3479
423.5	-85.3481
423.6	-85.3483
423.7	-85.3485
423.8	-85.3487
423.9	-85.3489
424	-85.3491
424.1	-85.3493
424.2	-85.3495
424.3	-85.3497
424.4	-85.3499
424.5	-85.3501
424.6	-85.3503
424.7	-85.3505
424.8	-85.3507
424.9	-85.3509
425	-85.3511
425.1	-85.3513
425.2	-85.3515
425.3	-85.3517
425.4	-85.3519
425.5	-85.3521
425.6	-85.3523
425.7	-85.3525
425.8	-85.3527
425.9	-85.3529
426	-85.3531
426.1	-85.3533
426.2	-85.3535
426.3	-85.3537
426.4	-85.3539
426.5	-85.3541
426.6	-85.3543
426.7	-85.3545
426.8	-85.3547
426.9	-85.3549
427	-85.3551
427.1	-85.3553
427.2	-85.3555
427.3	-85.3557
427.4	-85.3559
427.5	-85.3561
427.6	-85.3563
427.7	-85.3565
427.8	-85.3567
427.9	-85.3569
428	-85.3571
428.1	-85.3573
428.2	-85.3575
428.3	-85.3577
428.4	-85.3579
428.5	-85.3581
428.6	-85.3583
428.7	-85.3585
428.8	-85.3587
428.9	-85.3589
429	-85.3591
429.1	-85.3593
429.2	-85.3595
429.3	-85.3597
429.4	-85.3599
429.5	-85.3601
429.6	-85.3602
429.7	-85.3604
429.8	-85.3606
429.9	-85.3608
430	-85.361
430.1	-85.3612
430.2	-85.3614
430.3	-85.3616
430.4	-85.3618
430.5	-85.362
430.6	-85.3622
430.7	-85.3624
430.8	-85.3626
430.9	-85.3628
431	-85.363
431.1	-85.3632
431.2	-85.3634
431.3	-85.3636
431.4	-85.3638
431.5	-85.364
431.6	-85.3641
431.7	-85.3643
431.8	-85.3645
431.9	-85.3647
432	-85.3649
432.1	-85.3651
432.2	-85.3653
432.3	-85.3655
432.4	-85.3657
432.5	-85.3659
432.6	-85.3661
432.7	-85.3663
432.8	-85.3665
432.9	-85.3667
433	-85.3668
433.1	-85.367
433.2	-85.3672
433.3	-85.3674
433.4	-85.3676
433.5	-85.3678
433.6	-85.368
433.7	-85.3682
433.8	-85.3684
433.9	-85.3686
434	-85.3688
434.1	-85.369
434.2	-85.3691
434.3	-85.3693
434.4	-85.3695
434.5	-85.3697
434.6	-85.3699
434.7	-85.3701
434.8	-85.3703
434.9	-85.3705
435	-85.3707
435.1	-85.3709
435.2	-85.3711
435.3	-85.3712
435.4	-85.3714
435.5	-85.3716
435.6	-85.3718
435.7	-85.372
435.8	-85.3722
435.9	-85.3724
436	-85.3726
436.1	-85.3728
436.2	-85.373
436.3	-85.3731
436.4	-85.3733
436.5	-85.3735
436.6	-85.3737
436.7	-85.3739
436.8	-85.3741
436.9	-85.3743
437	-85.3745
437.1	-85.3747
437.2	-85.3748
437.3	-85.375
437.4	-85.3752
437.5	-85.3754
437.6	-85.3756
437.7	-85.3758
437.8	-85.376
437.9	-85.3762
438	-85.3763
438.1	-85.3765
438.2	-85.3767
438.3	-85.3769
438.4	-85.3771
438.5	-85.3773
438.6	-85.3775
438.7	-85.3777
438.8	-85.3778
438.9	-85.378
439	-85.3782
439.1	-85.3784
439.2	-85.3786
439.3	-85.3788
439.4	-85.379
439.5	-85.3792
439.6	-85.3793
439.7	-85.3795
439.8	-85.3797
439.9	-85.3799
440	-85.3801
440.1	-85.3803
440.2	-85.3805
440.3	-85.3806
440.4	-85.3808
440.5	-85.381
440.6	-85.3812
440.7	-85.3814
440.8	-85.3816
440.9	-85.3817
441	-85.3819
441.1	-85.3821
441.2	-85.3823
441.3	-85.3825
441.4	-85.3827
441.5	-85.3829
441.6	-85.383
441.7	-85.3832
441.8	-85.3834
441.9	-85.3836
442	-85.3838
442.1	-85.384
442.2	-85.3841
442.3	-85.3843
442.4	-85.3845
442.5	-85.3847
442.6	-85.3849
442.7	-85.3851
442.8	-85.3852
442.9	-85.3854
443	-85.3856
443.1	-85.3858
443.2	-85.386
443.3	-85.3862
443.4	-85.3863
443.5	-85.3865
443.6	-85.3867
443.7	-85.3869
443.8	-85.3871
443.9	-85.3873
444	-85.3874
444.1	-85.3876
444.2	-85.3878
444.3	-85.388
444.4	-85.3882
444.5	-85.3883
444.6	-85.3885
444.7	-85.3887
444.8	-85.3889
444.9	-85.3891
445	-85.3893
445.1	-85.3894
445.2	-85.3896
445.3	-85.3898
445.4	-85.39
445.5	-85.3902
445.6	-85.3903
445.7	-85.3905
445.8	-85.3907
445.9	-85.3909
446	-85.3911
446.1	-85.3912
446.2	-85.3914
446.3	-85.3916
446.4	-85.3918
446.5	-85.392
446.6	-85.3921
446.7	-85.3923
446.8	-85.3925
446.9	-85.3927
447	-85.3929
447.1	-85.393
447.2	-85.3932
447.3	-85.3934
447.4	-85.3936
447.5	-85.3938
447.6	-85.3939
447.7	-85.3941
447.8	-85.3943
447.9	-85.3945
448	-85.3946
448.1	-85.3948
448.2	-85.395
448.3	-85.3952
448.4	-85.3954
448.5	-85.3955
448.6	-85.3957
448.7	-85.3959
448.8	-85.3961
448.9	-85.3962
449	-85.3964
449.1	-85.3966
449.2	-85.3968
449.3	-85.397
449.4	-85.3971
449.5	-85.3973
449.6	-85.3975
449.7	-85.3977
449.8	-85.3978
449.9	-85.398
450	-85.3982
450.1	-85.3984
450.2	-85.3985
450.3	-85.3987
450.4	-85.3989
450.5	-85.3991
450.6	-85.3993
450.7	-85.3994
450.8	-85.3996
450.9	-85.3998
451	-85.4
451.1	-85.4001
451.2	-85.4003
451.3	-85.4005
451.4	-85.4007
451.5	-85.4008
451.6	-85.401
451.7	-85.4012
451.8	-85.4014
451.9	-85.4015
452	-85.4017
452.1	-85.4019
452.2	-85.4021
452.3	-85.4022
452.4	-85.4024
452.5	-85.4026
452.6	-85.4028
452.7	-85.4029
452.8	-85.4031
452.9	-85.4033
453	-85.4035
453.1	-85.4036
453.2	-85.4038
453.3	-85.404
453.4	-85.4042
453.5	-85.4043
453.6	-85.4045
453.7	-85.4047
453.8	-85.4048
453.9	-85.405
454	-85.4052
454.1	-85.4054
454.2	-85.4055
454.3	-85.4057
454.4	-85.4059
454.5	-85.4061
454.6	-85.4062
454.7	-85.4064
454.8	-85.4066
454.9	-85.4067
455	-85.4069
455.1	-85.4071
455.2	-85.4073
455.3	-85.4074
455.4	-85.4076
455.5	-85.4078
455.6	-85.408
455.7	-85.4081
455.8	-85.4083
455.9	-85.4085
456	-85.4086
456.1	-85.4088
456.2	-85.409
456.3	-85.4092
456.4	-85.4093
456.5	-85.4095
456.6	-85.4097
456.7	-85.4098
456.8	-85.41
456.9	-85.4102
457	-85.4104
457.1	-85.4105
457.2	-85.4107
457.3	-85.4109
457.4	-85.411
457.5	-85.4112
457.6	-85.4114
457.7	-85.4115
457.8	-85.4117
457.9	-85.4119
458	-85.4121
458.1	-85.4122
458.2	-85.4124
458.3	-85.4126
458.4	-85.4127
458.5	-85.4129
458.6	-85.4131
458.7	-85.4132
458.8	-85.4134
458.9	-85.4136
459	-85.4137
459.1	-85.4139
459.2	-85.4141
459.3	-85.4143
459.4	-85.4144
459.5	-85.4146
459.6	-85.4148
459.7	-85.4149
459.8	-85.4151
459.9	-85.4153
460	-85.4154
460.1	-85.4156
460.2	-85.4158
460.3	-85.4159
460.4	-85.4161
460.5	-85.4163
460.6	-85.4164
460.7	-85.4166
460.8	-85.4168
460.9	-85.4169
461	-85.4171
461.1	-85.4173
461.2	-85.4174
461.3	-85.4176
461.4	-85.4178
461.5	-85.4179
461.6	-85.4181
461.7	-85.4183
461.8	-85.4184
461.9	-85.4186
462	-85.4188
462.1	-85.4189
462.2	-85.4191
462.3	-85.4193
462.4	-85.4194
462.5	-85.4196
462.6	-85.4198
462.7	-85.4199
462.8	-85.4201
462.9	-85.4203
463	-85.4204
463.1	-85.4206
463.2	-85.4208
463.3	-85.4209
463.4	-85.4211
463.5	-85.4213
463.6	-85.4214
463.7	-85.4216
463.8	-85.4218
463.9	-85.4219
464	-85.4221
464.1	-85.4223
464.2	-85.4224
464.3	-85.4226
464.4	-85.4227
464.5	-85.4229
464.6	-85.4231
464.7	-85.4232
464.8	-85.4234
464.9	-85.4236
465	-85.4237
465.1	-85.4239
465.2	-85.4241
465.3	-85.4242
465.4	-85.4244
465.5	-85.4246
465.6	-85.4247
465.7	-85.4249
465.8	-85.425
465.9	-85.4252
466	-85.4254
466.1	-85.4255
466.2	-85.4257
466.3	-85.4259
466.4	-85.426
466.5	-85.4262
466.6	-85.4263
466.7	-85.4265
466.8	-85.4267
466.9	-85.4268
467	-85.427
467.1	-85.4272
467.2	-85.4273
467.3	-85.4275
467.4	-85.4276
467.5	-85.4278
467.6	-85.428
467.7	-85.4281
467.8	-85.4283
467.9	-85.4285
468	-85.4286
468.1	-85.4288
468.2	-85.4289
468.3	-85.4291
468.4	-85.4293
468.5	-85.4294
468.6	-85.4296
468.7	-85.4297
468.8	-85.4299
468.9	-85.4301
469	-85.4302
469.1	-85.4304
469.2	-85.4306
469.3	-85.4307
469.4	-85.4309
469.5	-85.431
469.6	-85.4312
469.7	-85.4314
469.8	-85.4315
469.9	-85.4317
470	-85.4318
470.1	-85.432
470.2	-85.4322
470.3	-85.4323
470.4	-85.4325
470.5	-85.4326
470.6	-85.4328
470.7	-85.433
470.8	-85.4331
470.9	-85.4333
471	-85.4334
471.1	-85.4336
471.2	-85.4337
471.3	-85.4339
471.4	-85.4341
471.5	-85.4342
471.6	-85.4344
471.7	-85.4345
471.8	-85.4347
471.9	-85.4349
472	-85.435
472.1	-85.4352
472.2	-85.4353
472.3	-85.4355
472.4	-85.4357
472.5	-85.4358
472.6	-85.436
472.7	-85.4361
472.8	-85.4363
472.9	-85.4364
473	-85.4366
473.1	-85.4368
473.2	-85.4369
473.3	-85.4371
473.4	-85.4372
473.5	-85.4374
473.6	-85.4375
473.7	-85.4377
473.8	-85.4379
473.9	-85.438
474	-85.4382
474.1	-85.4383
474.2	-85.4385
474.3	-85.4386
474.4	-85.4388
474.5	-85.439
474.6	-85.4391
474.7	-85.4393
474.8	-85.4394
474.9	-85.4396
475	-85.4397
475.1	-85.4399
475.2	-85.44
475.3	-85.4402
475.4	-85.4404
475.5	-85.4405
475.6	-85.4407
475.7	-85.4408
475.8	-85.441
475.9	-85.4411
476	-85.4413
476.1	-85.4414
476.2	-85.4416
476.3	-85.4418
476.4	-85.4419
476.5	-85.4421
476.6	-85.4422
476.7	-85.4424
476.8	-85.4425
476.9	-85.4427
477	-85.4428
477.1	-85.443
477.2	-85.4432
477.3	-85.4433
477.4	-85.4435
477.5	-85.4436
477.6	-85.4438
477.7	-85.4439
477.8	-85.4441
477.9	-85.4442
478	-85.4444
478.1	-85.4445
478.2	-85.4447
478.3	-85.4448
478.4	-85.445
478.5	-85.4452
478.6	-85.4453
478.7	-85.4455
478.8	-85.4456
478.9	-85.4458
479	-85.4459
479.1	-85.4461
479.2	-85.4462
479.3	-85.4464
479.4	-85.4465
479.5	-85.4467
479.6	-85.4468
479.7	-85.447
479.8	-85.4471
479.9	-85.4473
480	-85.4474
480.1	-85.4476
480.2	-85.4478
480.3	-85.4479
480.4	-85.4481
480.5	-85.4482
480.6	-85.4484
480.7	-85.4485
480.8	-85.4487
480.9	-85.4488
481	-85.449
481.1	-85.4491
481.2	-85.4493
481.3	-85.4494
481.4	-85.4496
481.5	-85.4497
481.6	-85.4499
481.7	-85.45
481.8	-85.4502
481.9	-85.4503
482	-85.4505
482.1	-85.4506
482.2	-85.4508
482.3	-85.4509
482.4	-85.4511
482.5	-85.4512
482.6	-85.4514
482.7	-85.4515
482.8	-85.4517
482.9	-85.4518
483	-85.452
483.1	-85.4521
483.2	-85.4523
483.3	-85.4524
483.4	-85.4526
483.5	-85.4527
483.6	-85.4529
483.7	-85.453
483.8	-85.4532
483.9	-85.4533
484	-85.4535
484.1	-85.4536
484.2	-85.4538
484.3	-85.4539
484.4	-85.4541
484.5	-85.4542
484.6	-85.4544
484.7	-85.4545
484.8	-85.4547
484.9	-85.4548
485	-85.455
485.1	-85.4551
485.2	-85.4553
485.3	-85.4554
485.4	-85.4556
485.5	-85.4557
485.6	-85.4559
485.7	-85.456
485.8	-85.4562
485.9	-85.4563
486	-85.4565
486.1	-85.4566
486.2	-85.4568
486.3	-85.4569
486.4	-85.457
486.5	-85.4572
486.6	-85.4573
486.7	-85.4575
486.8	-85.4576
486.9	-85.4578
487	-85.4579
487.1	-85.4581
487.2	-85.4582
487.3	-85.4584
487.4	-85.4585
487.5	-85.4587
487.6	-85.4588
487.7	-85.459
487.8	-85.4591
487.9	-85.4593
488	-85.4594
488.1	-85.4595
488.2	-85.4597
488.3	-85.4598
488.4	-85.46
488.5	-85.4601
488.6	-85.4603
488.7	-85.4604
488.8	-85.4606
488.9	-85.4607
489	-85.4609
489.1	-85.461
489.2	-85.4612
489.3	-85.4613
489.4	-85.4614
489.5	-85.4616
489.6	-85.4617
489.7	-85.4619
489.8	-85.462
489.9	-85.4622
490	-85.4623
490.1	-85.4625
490.2	-85.4626
490.3	-85.4628
490.4	-85.4629
490.5	-85.463
490.6	-85.4632
490.7	-85.4633
490.8	-85.4635
490.9	-85.4636
491	-85.4638
491.1	-85.4639
491.2	-85.4641
491.3	-85.4642
491.4	-85.4643
491.5	-85.4645
491.6	-85.4646
491.7	-85.4648
491.8	-85.4649
491.9	-85.4651
492	-85.4652
492.1	-85.4653
492.2	-85.4655
492.3	-85.4656
492.4	-85.4658
492.5	-85.4659
492.6	-85.4661
492.7	-85.4662
492.8	-85.4664
492.9	-85.4665
493	-85.4666
493.1	-85.4668
493.2	-85.4669
493.3	-85.4671
493.4	-85.4672
493.5	-85.4674
493.6	-85.4675
493.7	-85.4676
493.8	-85.4678
493.9	-85.4679
494	-85.4681
494.1	-85.4682
494.2	-85.4684
494.3	-85.4685
494.4	-85.4686
494.5	-85.4688
494.6	-85.4689
494.7	-85.4691
494.8	-85.4692
494.9	-85.4693
495	-85.4695
495.1	-85.4696
495.2	-85.4698
495.3	-85.4699
495.4	-85.4701
495.5	-85.4702
495.6	-85.4703
495.7	-85.4705
495.8	-85.4706
495.9	-85.4708
496	-85.4709
496.1	-85.471
496.2	-85.4712
496.3	-85.4713
496.4	-85.4715
496.5	-85.4716
496.6	-85.4717
496.7	-85.4719
496.8	-85.472
496.9	-85.4722
497	-85.4723
497.1	-85.4724
497.2	-85.4726
497.3	-85.4727
497.4	-85.4729
497.5	-85.473
497.6	-85.4731
497.7	-85.4733
497.8	-85.4734
497.9	-85.4736
498	-85.4737
498.1	-85.4738
498.2	-85.474
498.3	-85.4741
498.4	-85.4743
498.5	-85.4744
498.6	-85.4745
498.7	-85.4747
498.8	-85.4748
498.9	-85.475
499	-85.4751
499.1	-85.4752
499.2	-85.4754
499.3	-85.4755
499.4	-85.4757
499.5	-85.4758
499.6	-85.4759
499.7	-85.4761
499.8	-85.4762
499.9	-85.4763
500	-85.4765
500.1	-85.4766
500.2	-85.4768
500.3	-85.4769
500.4	-85.477
500.5	-85.4772
500.6	-85.4773
500.7	-85.4774
500.8	-85.4776
500.9	-85.4777
501	-85.4779
501.1	-85.478
501.2	-85.4781
501.3	-85.4783
501.4	-85.4784
501.5	-85.4785
501.6	-85.4787
501.7	-85.4788
501.8	-85.479
501.9	-85.4791
502	-85.4792
502.1	-85.4794
502.2	-85.4795
502.3	-85.4796
502.4	-85.4798
502.5	-85.4799
502.6	-85.4801
502.7	-85.4802
502.8	-85.4803
502.9	-85.4805
503	-85.4806
503.1	-85.4807
503.2	-85.4809
503.3	-85.481
503.4	-85.4811
503.5	-85.4813
503.6	-85.4814
503.7	-85.4816
503.8	-85.4817
503.9	-85.4818
504	-85.482
504.1	-85.4821
504.2	-85.4822
504.3	-85.4824
504.4	-85.4825
504.5	-85.4826
504.6	-85.4828
504.7	-85.4829
504.8	-85.483
504.9	-85.4832
505	-85.4833
505.1	-85.4834
505.2	-85.4836
505.3	-85.4837
505.4	-85.4839
505.5	-85.484
505.6	-85.4841
505.7	-85.4843
505.8	-85.4844
505.9	-85.4845
506	-85.4847
506.1	-85.4848
506.2	-85.4849
506.3	-85.4851
506.4	-85.4852
506.5	-85.4853
506.6	-85.4855
506.7	-85.4856
506.8	-85.4857
506.9	-85.4859
507	-85.486
507.1	-85.4861
507.2	-85.4863
507.3	-85.4864
507.4	-85.4865
507.5	-85.4867
507.6	-85.4868
507.7	-85.4869
507.8	-85.4871
507.9	-85.4872
508	-85.4873
508.1	-85.4875
508.2	-85.4876
508.3	-85.4877
508.4	-85.4879
508.5	-85.488
508.6	-85.4881
508.7	-85.4883
508.8	-85.4884
508.9	-85.4885
509	-85.4887
509.1	-85.4888
509.2	-85.4889
509.3	-85.4891
509.4	-85.4892
509.5	-85.4893
509.6	-85.4895
509.7	-85.4896
509.8	-85.4897
509.9	-85.4899
510	-85.49
510.1	-85.4901
510.2	-85.4902
510.3	-85.4904
510.4	-85.4905
510.5	-85.4906
510.6	-85.4908
510.7	-85.4909
510.8	-85.491
510.9	-85.4912
511	-85.4913
511.1	-85.4914
511.2	-85.4916
511.3	-85.4917
511.4	-85.4918
511.5	-85.492
511.6	-85.4921
511.7	-85.4922
511.8	-85.4923
511.9	-85.4925
512	-85.4926
512.1	-85.4927
512.2	-85.4929
512.3	-85.493
512.4	-85.4931
512.5	-85.4933
512.6	-85.4934
512.7	-85.4935
512.8	-85.4936
512.9	-85.4938
513	-85.4939
513.1	-85.494
513.2	-85.4942
513.3	-85.4943
513.4	-85.4944
513.5	-85.4946
513.6	-85.4947
513.7	-85.4948
513.8	-85.4949
513.9	-85.4951
514	-85.4952
514.1	-85.4953
514.2	-85.4955
514.3	-85.4956
514.4	-85.4957
514.5	-85.4958
514.6	-85.496
514.7	-85.4961
514.8	-85.4962
514.9	-85.4964
515	-85.4965
515.1	-85.4966
515.2	-85.4967
515.3	-85.4969
515.4	-85.497
515.5	-85.4971
515.6	-85.4973
515.7	-85.4974
515.8	-85.4975
515.9	-85.4976
516	-85.4978
516.1	-85.4979
516.2	-85.498
516.3	-85.4982
516.4	-85.4983
516.5	-85.4984
516.6	-85.4985
516.7	-85.4987
516.8	-85.4988
516.9	-85.4989
517	-85.4991
517.1	-85.4992
517.2	-85.4993
517.3	-85.4994
517.4	-85.4996
517.5	-85.4997
517.6	-85.4998
517.7	-85.4999
517.8	-85.5001
517.9	-85.5002
518	-85.5003
518.1	-85.5005
518.2	-85.5006
518.3	-85.5007
518.4	-85.5008
518.5	-85.501
518.6	-85.5011
518.7	-85.5012
518.8	-85.5013
518.9	-85.5015
519	-85.5016
519.1	-85.5017
519.2	-85.5018
519.3	-85.502
519.4	-85.5021
519.5	-85.5022
519.6	-85.5023
519.7	-85.5025
519.8	-85.5026
519.9	-85.5027
520	-85.5028
520.1	-85.503
520.2	-85.5031
520.3	-85.5032
520.4	-85.5034
520.5	-85.5035
520.6	-85.5036
520.7	-85.5037
520.8	-85.5039
520.9	-85.504
521	-85.5041
521.1	-85.5042
521.2	-85.5044
521.3	-85.5045
521.4	-85.5046
521.5	-85.5047
521.6	-85.5049
521.7	-85.505
521.8	-85.5051
521.9	-85.5052
522	-85.5053
522.1	-85.5055
522.2	-85.5056
522.3	-85.5057
522.4	-85.5058
522.5	-85.506
522.6	-85.5061
522.7	-85.5062
522.8	-85.5063
522.9	-85.5065
523	-85.5066
523.1	-85.5067
523.2	-85.5068
523.3	-85.507
523.4	-85.5071
523.5	-85.5072
523.6	-85.5073
523.7	-85.5075
523.8	-85.5076
523.9	-85.5077
524	-85.5078
524.1	-85.5079
524.2	-85.5081
524.3	-85.5082
524.4	-85.5083
524.5	-85.5084
524.6	-85.5086
524.7	-85.5087
524.8	-85.5088
524.9	-85.5089
525	-85.5091
525.1	-85.5092
525.2	-85.5093
525.3	-85.5094
525.4	-85.5095
525.5	-85.5097
525.6	-85.5098
525.7	-85.5099
525.8	-85.51
525.9	-85.5102
526	-85.5103
526.1	-85.5104
526.2	-85.5105
526.3	-85.5106
526.4	-85.5108
526.5	-85.5109
526.6	-85.511
526.7	-85.5111
526.8	-85.5113
526.9	-85.5114
527	-85.5115
527.1	-85.5116
527.2	-85.5117
527.3	-85.5119
527.4	-85.512
527.5	-85.5121
527.6	-85.5122
527.7	-85.5123
527.8	-85.5125
527.9	-85.5126
528	-85.5127
528.1	-85.5128
528.2	-85.513
528.3	-85.5131
528.4	-85.5132
528.5	-85.5133
528.6	-85.5134
528.7	-85.5136
528.8	-85.5137
528.9	-85.5138
529	-85.5139
529.1	-85.514
529.2	-85.5142
529.3	-85.5143
529.4	-85.5144
529.5	-85.5145
529.6	-85.5146
529.7	-85.5148
529.8	-85.5149
529.9	-85.515
530	-85.5151
530.1	-85.5152
530.2	-85.5154
530.3	-85.5155
530.4	-85.5156
530.5	-85.5157
530.6	-85.5158
530.7	-85.516
530.8	-85.5161
530.9	-85.5162
531	-85.5163
531.1	-85.5164
531.2	-85.5165
531.3	-85.5167
531.4	-85.5168
531.5	-85.5169
531.6	-85.517
531.7	-85.5171
531.8	-85.5173
531.9	-85.5174
532	-85.5175
532.1	-85.5176
532.2	-85.5177
532.3	-85.5179
532.4	-85.518
532.5	-85.5181
532.6	-85.5182
532.7	-85.5183
532.8	-85.5184
532.9	-85.5186
533	-85.5187
533.1	-85.5188
533.2	-85.5189
533.3	-85.519
533.4	-85.5192
533.5	-85.5193
533.6	-85.5194
533.7	-85.5195
533.8	-85.5196
533.9	-85.5197
534	-85.5199
534.1	-85.52
534.2	-85.5201
534.3	-85.5202
534.4	-85.5203
534.5	-85.5204
534.6	-85.5206
534.7	-85.5207
534.8	-85.5208
534.9	-85.5209
535	-85.521
535.1	-85.5212
535.2	-85.5213
535.3	-85.5214
535.4	-85.5215
535.5	-85.5216
535.6	-85.5217
535.7	-85.5219
535.8	-85.522
535.9	-85.5221
536	-85.5222
536.1	-85.5223
536.2	-85.5224
536.3	-85.5226
536.4	-85.5227
536.5	-85.5228
536.6	-85.5229
536.7	-85.523
536.8	-85.5231
536.9	-85.5232
537	-85.5234
537.1	-85.5235
537.2	-85.5236
537.3	-85.5237
537.4	-85.5238
537.5	-85.5239
537.6	-85.5241
537.7	-85.5242
537.8	-85.5243
537.9	-85.5244
538	-85.5245
538.1	-85.5246
538.2	-85.5247
538.3	-85.5249
538.4	-85.525
538.5	-85.5251
538.6	-85.5252
538.7	-85.5253
538.8	-85.5254
538.9	-85.5256
539	-85.5257
539.1	-85.5258
539.2	-85.5259
539.3	-85.526
539.4	-85.5261
539.5	-85.5262
539.6	-85.5264
539.7	-85.5265
539.8	-85.5266
539.9	-85.5267
540	-85.5268
540.1	-85.5269
540.2	-85.527
540.3	-85.5272
540.4	-85.5273
540.5	-85.5274
540.6	-85.5275
540.7	-85.5276
540.8	-85.5277
540.9	-85.5278
541	-85.528
541.1	-85.5281
541.2	-85.5282
541.3	-85.5283
541.4	-85.5284
541.5	-85.5285
541.6	-85.5286
541.7	-85.5287
541.8	-85.5289
541.9	-85.529
542	-85.5291
542.1	-85.5292
542.2	-85.5293
542.3	-85.5294
542.4	-85.5295
542.5	-85.5297
542.6	-85.5298
542.7	-85.5299
542.8	-85.53
542.9	-85.5301
543	-85.5302
543.1	-85.5303
543.2	-85.5304
543.3	-85.5306
543.4	-85.5307
543.5	-85.5308
543.6	-85.5309
543.7	-85.531
543.8	-85.5311
543.9	-85.5312
544	-85.5313
544.1	-85.5315
544.2	-85.5316
544.3	-85.5317
544.4	-85.5318
544.5	-85.5319
544.6	-85.532
544.7	-85.5321
544.8	-85.5322
544.9	-85.5323
545	-85.5325
545.1	-85.5326
545.2	-85.5327
545.3	-85.5328
545.4	-85.5329
545.5	-85.533
545.6	-85.5331
545.7	-85.5332
545.8	-85.5334
545.9	-85.5335
546	-85.5336
546.1	-85.5337
546.2	-85.5338
546.3	-85.5339
546.4	-85.534
546.5	-85.5341
546.6	-85.5342
546.7	-85.5344
546.8	-85.5345
546.9	-85.5346
547	-85.5347
547.1	-85.5348
547.2	-85.5349
547.3	-85.535
547.4	-85.5351
547.5	-85.5352
547.6	-85.5353
547.7	-85.5355
547.8	-85.5356
547.9	-85.5357
548	-85.5358
548.1	-85.5359
548.2	-85.536
548.3	-85.5361
548.4	-85.5362
548.5	-85.5363
548.6	-85.5364
548.7	-85.5366
548.8	-85.5367
548.9	-85.5368
549	-85.5369
549.1	-85.537
549.2	-85.5371
549.3	-85.5372
549.4	-85.5373
549.5	-85.5374
549.6	-85.5375
549.7	-85.5376
549.8	-85.5378
549.9	-85.5379
550	-85.538
550.1	-85.5381
550.2	-85.5382
550.3	-85.5383
550.4	-85.5384
550.5	-85.5385
550.6	-85.5386
550.7	-85.5387
550.8	-85.5388
550.9	-85.539
551	-85.5391
551.1	-85.5392
551.2	-85.5393
551.3	-85.5394
551.4	-85.5395
551.5	-85.5396
551.6	-85.5397
551.7	-85.5398
551.8	-85.5399
551.9	-85.54
552	-85.5401
552.1	-85.5403
552.2	-85.5404
552.3	-85.5405
552.4	-85.5406
552.5	-85.5407
552.6	-85.5408
552.7	-85.5409
552.8	-85.541
552.9	-85.5411
553	-85.5412
553.1	-85.5413
553.2	-85.5414
553.3	-85.5415
553.4	-85.5417
553.5	-85.5418
553.6	-85.5419
553.7	-85.542
553.8	-85.5421
553.9	-85.5422
554	-85.5423
554.1	-85.5424
554.2	-85.5425
554.3	-85.5426
554.4	-85.5427
554.5	-85.5428
554.6	-85.5429
554.7	-85.543
554.8	-85.5431
554.9	-85.5433
555	-85.5434
555.1	-85.5435
555.2	-85.5436
555.3	-85.5437
555.4	-85.5438
555.5	-85.5439
555.6	-85.544
555.7	-85.5441
555.8	-85.5442
555.9	-85.5443
556	-85.5444
556.1	-85.5445
556.2	-85.5446
556.3	-85.5447
556.4	-85.5448
556.5	-85.545
556.6	-85.5451
556.7	-85.5452
556.8	-85.5453
556.9	-85.5454
557	-85.5455
557.1	-85.5456
557.2	-85.5457
557.3	-85.5458
557.4	-85.5459
557.5	-85.546
557.6	-85.5461
557.7	-85.5462
557.8	-85.5463
557.9	-85.5464
558	-85.5465
558.1	-85.5466
558.2	-85.5467
558.3	-85.5468
558.4	-85.547
558.5	-85.5471
558.6	-85.5472
558.7	-85.5473
558.8	-85.5474
558.9	-85.5475
559	-85.5476
559.1	-85.5477
559.2	-85.5478
559.3	-85.5479
559.4	-85.548
559.5	-85.5481
559.6	-85.5482
559.7	-85.5483
559.8	-85.5484
559.9	-85.5485
560	-85.5486
560.1	-85.5487
560.2	-85.5488
560.3	-85.5489
560.4	-85.549
560.5	-85.5491
560.6	-85.5492
560.7	-85.5494
560.8	-85.5495
560.9	-85.5496
561	-85.5497
561.1	-85.5498
561.2	-85.5499
561.3	-85.55
561.4	-85.5501
561.5	-85.5502
561.6	-85.5503
561.7	-85.5504
561.8	-85.5505
561.9	-85.5506
562	-85.5507
562.1	-85.5508
562.2	-85.5509
562.3	-85.551
562.4	-85.5511
562.5	-85.5512
562.6	-85.5513
562.7	-85.5514
562.8	-85.5515
562.9	-85.5516
563	-85.5517
563.1	-85.5518
563.2	-85.5519
563.3	-85.552
563.4	-85.5521
563.5	-85.5522
563.6	-85.5523
563.7	-85.5524
563.8	-85.5525
563.9	-85.5526
564	-85.5527
564.1	-85.5528
564.2	-85.553
564.3	-85.5531
564.4	-85.5532
564.5	-85.5533
564.6	-85.5534
564.7	-85.5535
564.8	-85.5536
564.9	-85.5537
565	-85.5538
565.1	-85.5539
565.2	-85.554
565.3	-85.5541
565.4	-85.5542
565.5	-85.5543
565.6	-85.5544
565.7	-85.5545
565.8	-85.5546
565.9	-85.5547
566	-85.5548
566.1	-85.5549
566.2	-85.555
566.3	-85.5551
566.4	-85.5552
566.5	-85.5553
566.6	-85.5554
566.7	-85.5555
566.8	-85.5556
566.9	-85.5557
567	-85.5558
567.1	-85.5559
567.2	-85.556
567.3	-85.5561
567.4	-85.5562
567.5	-85.5563
567.6	-85.5564
567.7	-85.5565
567.8	-85.5566
567.9	-85.5567
568	-85.5568
568.1	-85.5569
568.2	-85.557
568.3	-85.5571
568.4	-85.5572
568.5	-85.5573
568.6	-85.5574
568.7	-85.5575
568.8	-85.5576
568.9	-85.5577
569	-85.5578
569.1	-85.5579
569.2	-85.558
569.3	-85.5581
569.4	-85.5582
569.5	-85.5583
569.6	-85.5584
569.7	-85.5585
569.8	-85.5586
569.9	-85.5587
570	-85.5588
570.1	-85.5589
570.2	-85.559
570.3	-85.5591
570.4	-85.5592
570.5	-85.5593
570.6	-85.5594
570.7	-85.5595
570.8	-85.5596
570.9	-85.5597
571	-85.5598
571.1	-85.5599
571.2	-85.56
571.3	-85.5601
571.4	-85.5602
571.5	-85.5603
571.6	-85.5604
571.7	-85.5605
571.8	-85.5606
571.9	-85.5607
572	-85.5608
572.1	-85.5609
572.2	-85.561
572.3	-85.5611
572.4	-85.5612
572.5	-85.5613
572.6	-85.5614
572.7	-85.5615
572.8	-85.5616
572.9	-85.5616
573	-85.5617
573.1	-85.5618
573.2	-85.5619
573.3	-85.562
573.4	-85.5621
573.5	-85.5622
573.6	-85.5623
573.7	-85.5624
573.8	-85.5625
573.9	-85.5626
574	-85.5627
574.1	-85.5628
574.2	-85.5629
574.3	-85.563
574.4	-85.5631
574.5	-85.5632
574.6	-85.5633
574.7	-85.5634
574.8	-85.5635
574.9	-85.5636
575	-85.5637
575.1	-85.5638
575.2	-85.5639
575.3	-85.564
575.4	-85.5641
575.5	-85.5642
575.6	-85.5643
575.7	-85.5644
575.8	-85.5645
575.9	-85.5646
576	-85.5647
576.1	-85.5648
576.2	-85.5649
576.3	-85.565
576.4	-85.5651
576.5	-85.5651
576.6	-85.5652
576.7	-85.5653
576.8	-85.5654
576.9	-85.5655
577	-85.5656
577.1	-85.5657
577.2	-85.5658
577.3	-85.5659
577.4	-85.566
577.5	-85.5661
577.6	-85.5662
577.7	-85.5663
577.8	-85.5664
577.9	-85.5665
578	-85.5666
578.1	-85.5667
578.2	-85.5668
578.3	-85.5669
578.4	-85.567
578.5	-85.5671
578.6	-85.5672
578.7	-85.5673
578.8	-85.5674
578.9	-85.5674
579	-85.5675
579.1	-85.5676
579.2	-85.5677
579.3	-85.5678
579.4	-85.5679
579.5	-85.568
579.6	-85.5681
579.7	-85.5682
579.8	-85.5683
579.9	-85.5684
580	-85.5685
580.1	-85.5686
580.2	-85.5687
580.3	-85.5688
580.4	-85.5689
580.5	-85.569
580.6	-85.5691
580.7	-85.5692
580.8	-85.5692
580.9	-85.5693
581	-85.5694
581.1	-85.5695
581.2	-85.5696
581.3	-85.5697
581.4	-85.5698
581.5	-85.5699
581.6	-85.57
581.7	-85.5701
581.8	-85.5702
581.9	-85.5703
582	-85.5704
582.1	-85.5705
582.2	-85.5706
582.3	-85.5707
582.4	-85.5708
582.5	-85.5708
582.6	-85.5709
582.7	-85.571
582.8	-85.5711
582.9	-85.5712
583	-85.5713
583.1	-85.5714
583.2	-85.5715
583.3	-85.5716
583.4	-85.5717
583.5	-85.5718
583.6	-85.5719
583.7	-85.572
583.8	-85.5721
583.9	-85.5722
584	-85.5723
584.1	-85.5723
584.2	-85.5724
584.3	-85.5725
584.4	-85.5726
584.5	-85.5727
584.6	-85.5728
584.7	-85.5729
584.8	-85.573
584.9	-85.5731
585	-85.5732
585.1	-85.5733
585.2	-85.5734
585.3	-85.5735
585.4	-85.5735
585.5	-85.5736
585.6	-85.5737
585.7	-85.5738
585.8	-85.5739
585.9	-85.574
586	-85.5741
586.1	-85.5742
586.2	-85.5743
586.3	-85.5744
586.4	-85.5745
586.5	-85.5746
586.6	-85.5747
586.7	-85.5747
586.8	-85.5748
586.9	-85.5749
587	-85.575
587.1	-85.5751
587.2	-85.5752
587.3	-85.5753
587.4	-85.5754
587.5	-85.5755
587.6	-85.5756
587.7	-85.5757
587.8	-85.5758
587.9	-85.5758
588	-85.5759
588.1	-85.576
588.2	-85.5761
588.3	-85.5762
588.4	-85.5763
588.5	-85.5764
588.6	-85.5765
588.7	-85.5766
588.8	-85.5767
588.9	-85.5768
589	-85.5769
589.1	-85.5769
589.2	-85.577
589.3	-85.5771
589.4	-85.5772
589.5	-85.5773
589.6	-85.5774
589.7	-85.5775
589.8	-85.5776
589.9	-85.5777
590	-85.5778
590.1	-85.5778
590.2	-85.5779
590.3	-85.578
590.4	-85.5781
590.5	-85.5782
590.6	-85.5783
590.7	-85.5784
590.8	-85.5785
590.9	-85.5786
591	-85.5787
591.1	-85.5788
591.2	-85.5788
591.3	-85.5789
591.4	-85.579
591.5	-85.5791
591.6	-85.5792
591.7	-85.5793
591.8	-85.5794
591.9	-85.5795
592	-85.5796
592.1	-85.5797
592.2	-85.5797
592.3	-85.5798
592.4	-85.5799
592.5	-85.58
592.6	-85.5801
592.7	-85.5802
592.8	-85.5803
592.9	-85.5804
593	-85.5805
593.1	-85.5805
593.2	-85.5806
593.3	-85.5807
593.4	-85.5808
593.5	-85.5809
593.6	-85.581
593.7	-85.5811
593.8	-85.5812
593.9	-85.5813
594	-85.5813
594.1	-85.5814
594.2	-85.5815
594.3	-85.5816
594.4	-85.5817
594.5	-85.5818
594.6	-85.5819
594.7	-85.582
594.8	-85.5821
594.9	-85.5821
595	-85.5822
595.1	-85.5823
595.2	-85.5824
595.3	-85.5825
595.4	-85.5826
595.5	-85.5827
595.6	-85.5828
595.7	-85.5829
595.8	-85.5829
595.9	-85.583
596	-85.5831
596.1	-85.5832
596.2	-85.5833
596.3	-85.5834
596.4	-85.5835
596.5	-85.5836
596.6	-85.5836
596.7	-85.5837
596.8	-85.5838
596.9	-85.5839
597	-85.584
597.1	-85.5841
597.2	-85.5842
597.3	-85.5843
597.4	-85.5843
597.5	-85.5844
597.6	-85.5845
597.7	-85.5846
597.8	-85.5847
597.9	-85.5848
598	-85.5849
598.1	-85.585
598.2	-85.585
598.3	-85.5851
598.4	-85.5852
598.5	-85.5853
598.6	-85.5854
598.7	-85.5855
598.8	-85.5856
598.9	-85.5857
599	-85.5857
599.1	-85.5858
599.2	-85.5859
599.3	-85.586
599.4	-85.5861
599.5	-85.5862
599.6	-85.5863
599.7	-85.5863
599.8	-85.5864
599.9	-85.5865
600	-85.5866
600.1	-85.5867
600.2	-85.5868
600.3	-85.5869
600.4	-85.587
600.5	-85.587
600.6	-85.5871
600.7	-85.5872
600.8	-85.5873
600.9	-85.5874
601	-85.5875
601.1	-85.5876
601.2	-85.5876
601.3	-85.5877
601.4	-85.5878
601.5	-85.5879
601.6	-85.588
601.7	-85.5881
601.8	-85.5882
601.9	-85.5882
602	-85.5883
602.1	-85.5884
602.2	-85.5885
602.3	-85.5886
602.4	-85.5887
602.5	-85.5888
602.6	-85.5888
602.7	-85.5889
602.8	-85.589
602.9	-85.5891
603	-85.5892
603.1	-85.5893
603.2	-85.5894
603.3	-85.5894
603.4	-85.5895
603.5	-85.5896
603.6	-85.5897
603.7	-85.5898
603.8	-85.5899
603.9	-85.59
604	-85.59
604.1	-85.5901
604.2	-85.5902
604.3	-85.5903
604.4	-85.5904
604.5	-85.5905
604.6	-85.5905
604.7	-85.5906
604.8	-85.5907
604.9	-85.5908
605	-85.5909
605.1	-85.591
605.2	-85.5911
605.3	-85.5911
605.4	-85.5912
605.5	-85.5913
605.6	-85.5914
605.7	-85.5915
605.8	-85.5916
605.9	-85.5916
606	-85.5917
606.1	-85.5918
606.2	-85.5919
606.3	-85.592
606.4	-85.5921
606.5	-85.5921
606.6	-85.5922
606.7	-85.5923
606.8	-85.5924
606.9	-85.5925
607	-85.5926
607.1	-85.5926
607.2	-85.5927
607.3	-85.5928
607.4	-85.5929
607.5	-85.593
607.6	-85.5931
607.7	-85.5932
607.8	-85.5932
607.9	-85.5933
608	-85.5934
608.1	-85.5935
608.2	-85.5936
608.3	-85.5937
608.4	-85.5937
608.5	-85.5938
608.6	-85.5939
608.7	-85.594
608.8	-85.5941
608.9	-85.5941
609	-85.5942
609.1	-85.5943
609.2	-85.5944
609.3	-85.5945
609.4	-85.5946
609.5	-85.5946
609.6	-85.5947
609.7	-85.5948
609.8	-85.5949
609.9	-85.595
610	-85.5951
610.1	-85.5951
610.2	-85.5952
610.3	-85.5953
610.4	-85.5954
610.5	-85.5955
610.6	-85.5956
610.7	-85.5956
610.8	-85.5957
610.9	-85.5958
611	-85.5959
611.1	-85.596
611.2	-85.596
611.3	-85.5961
611.4	-85.5962
611.5	-85.5963
611.6	-85.5964
611.7	-85.5965
611.8	-85.5965
611.9	-85.5966
612	-85.5967
612.1	-85.5968
612.2	-85.5969
612.3	-85.597
612.4	-85.597
612.5	-85.5971
612.6	-85.5972
612.7	-85.5973
612.8	-85.5974
612.9	-85.5974
613	-85.5975
613.1	-85.5976
613.2	-85.5977
613.3	-85.5978
613.4	-85.5978
613.5	-85.5979
613.6	-85.598
613.7	-85.5981
613.8	-85.5982
613.9	-85.5983
614	-85.5983
614.1	-85.5984
614.2	-85.5985
614.3	-85.5986
614.4	-85.5987
614.5	-85.5987
614.6	-85.5988
614.7	-85.5989
614.8	-85.599
614.9	-85.5991
615	-85.5991
615.1	-85.5992
615.2	-85.5993
615.3	-85.5994
615.4	-85.5995
615.5	-85.5995
615.6	-85.5996
615.7	-85.5997
615.8	-85.5998
615.9	-85.5999
616	-85.6
616.1	-85.6
616.2	-85.6001
616.3	-85.6002
616.4	-85.6003
616.5	-85.6004
616.6	-85.6004
616.7	-85.6005
616.8	-85.6006
616.9	-85.6007
617	-85.6008
617.1	-85.6008
617.2	-85.6009
617.3	-85.601
617.4	-85.6011
617.5	-85.6012
617.6	-85.6012
617.7	-85.6013
617.8	-85.6014
617.9	-85.6015
618	-85.6016
618.1	-85.6016
618.2	-85.6017
618.3	-85.6018
618.4	-85.6019
618.5	-85.6019
618.6	-85.602
618.7	-85.6021
618.8	-85.6022
618.9	-85.6023
619	-85.6023
619.1	-85.6024
619.2	-85.6025
619.3	-85.6026
619.4	-85.6027
619.5	-85.6027
619.6	-85.6028
619.7	-85.6029
619.8	-85.603
619.9	-85.6031
620	-85.6031
620.1	-85.6032
620.2	-85.6033
620.3	-85.6034
620.4	-85.6035
620.5	-85.6035
620.6	-85.6036
620.7	-85.6037
620.8	-85.6038
620.9	-85.6038
621	-85.6039
621.1	-85.604
621.2	-85.6041
621.3	-85.6042
621.4	-85.6042
621.5	-85.6043
621.6	-85.6044
621.7	-85.6045
621.8	-85.6046
621.9	-85.6046
622	-85.6047
622.1	-85.6048
622.2	-85.6049
622.3	-85.6049
622.4	-85.605
622.5	-85.6051
622.6	-85.6052
622.7	-85.6053
622.8	-85.6053
622.9	-85.6054
623	-85.6055
623.1	-85.6056
623.2	-85.6056
623.3	-85.6057
623.4	-85.6058
623.5	-85.6059
623.6	-85.606
623.7	-85.606
623.8	-85.6061
623.9	-85.6062
624	-85.6063
624.1	-85.6063
624.2	-85.6064
624.3	-85.6065
624.4	-85.6066
624.5	-85.6067
624.6	-85.6067
624.7	-85.6068
624.8	-85.6069
624.9	-85.607
625	-85.607
625.1	-85.6071
625.2	-85.6072
625.3	-85.6073
625.4	-85.6073
625.5	-85.6074
625.6	-85.6075
625.7	-85.6076
625.8	-85.6077
625.9	-85.6077
626	-85.6078
626.1	-85.6079
626.2	-85.608
626.3	-85.608
626.4	-85.6081
626.5	-85.6082
626.6	-85.6083
626.7	-85.6083
626.8	-85.6084
626.9	-85.6085
627	-85.6086
627.1	-85.6087
627.2	-85.6087
627.3	-85.6088
627.4	-85.6089
627.5	-85.609
627.6	-85.609
627.7	-85.6091
627.8	-85.6092
627.9	-85.6093
628	-85.6093
628.1	-85.6094
628.2	-85.6095
628.3	-85.6096
628.4	-85.6096
628.5	-85.6097
628.6	-85.6098
628.7	-85.6099
628.8	-85.6099
628.9	-85.61
629	-85.6101
629.1	-85.6102
629.2	-85.6103
629.3	-85.6103
629.4	-85.6104
629.5	-85.6105
629.6	-85.6106
629.7	-85.6106
629.8	-85.6107
629.9	-85.6108
630	-85.6109
630.1	-85.6109
630.2	-85.611
630.3	-85.6111
630.4	-85.6112
630.5	-85.6112
630.6	-85.6113
630.7	-85.6114
630.8	-85.6115
630.9	-85.6115
631	-85.6116
631.1	-85.6117
631.2	-85.6118
631.3	-85.6118
631.4	-85.6119
631.5	-85.612
631.6	-85.6121
631.7	-85.6121
631.8	-85.6122
631.9	-85.6123
632	-85.6124
632.1	-85.6124
632.2	-85.6125
632.3	-85.6126
632.4	-85.6127
632.5	-85.6127
632.6	-85.6128
632.7	-85.6129
632.8	-85.613
632.9	-85.613
633	-85.6131
633.1	-85.6132
633.2	-85.6133
633.3	-85.6133
633.4	-85.6134
633.5	-85.6135
633.6	-85.6136
633.7	-85.6136
633.8	-85.6137
633.9	-85.6138
634	-85.6138
634.1	-85.6139
634.2	-85.614
634.3	-85.6141
634.4	-85.6141
634.5	-85.6142
634.6	-85.6143
634.7	-85.6144
634.8	-85.6144
634.9	-85.6145
635	-85.6146
635.1	-85.6147
635.2	-85.6147
635.3	-85.6148
635.4	-85.6149
635.5	-85.615
635.6	-85.615
635.7	-85.6151
635.8	-85.6152
635.9	-85.6153
636	-85.6153
636.1	-85.6154
636.2	-85.6155
636.3	-85.6155
636.4	-85.6156
636.5	-85.6157
636.6	-85.6158
636.7	-85.6158
636.8	-85.6159
636.9	-85.616
637	-85.6161
637.1	-85.6161
637.2	-85.6162
637.3	-85.6163
637.4	-85.6163
637.5	-85.6164
637.6	-85.6165
637.7	-85.6166
637.8	-85.6166
637.9	-85.6167
638	-85.6168
638.1	-85.6169
638.2	-85.6169
638.3	-85.617
638.4	-85.6171
638.5	-85.6171
638.6	-85.6172
638.7	-85.6173
638.8	-85.6174
638.9	-85.6174
639	-85.6175
639.1	-85.6176
639.2	-85.6177
639.3	-85.6177
639.4	-85.6178
639.5	-85.6179
639.6	-85.6179
639.7	-85.618
639.8	-85.6181
639.9	-85.6182
640	-85.6182
640.1	-85.6183
640.2	-85.6184
640.3	-85.6185
640.4	-85.6185
640.5	-85.6186
640.6	-85.6187
640.7	-85.6187
640.8	-85.6188
640.9	-85.6189
641	-85.619
641.1	-85.619
641.2	-85.6191
641.3	-85.6192
641.4	-85.6192
641.5	-85.6193
641.6	-85.6194
641.7	-85.6195
641.8	-85.6195
641.9	-85.6196
642	-85.6197
642.1	-85.6197
642.2	-85.6198
642.3	-85.6199
642.4	-85.62
642.5	-85.62
642.6	-85.6201
642.7	-85.6202
642.8	-85.6202
642.9	-85.6203
643	-85.6204
643.1	-85.6205
643.2	-85.6205
643.3	-85.6206
643.4	-85.6207
643.5	-85.6207
643.6	-85.6208
643.7	-85.6209
643.8	-85.621
643.9	-85.621
644	-85.6211
644.1	-85.6212
644.2	-85.6212
644.3	-85.6213
644.4	-85.6214
644.5	-85.6214
644.6	-85.6215
644.7	-85.6216
644.8	-85.6217
644.9	-85.6217
645	-85.6218
645.1	-85.6219
645.2	-85.6219
645.3	-85.622
645.4	-85.6221
645.5	-85.6222
645.6	-85.6222
645.7	-85.6223
645.8	-85.6224
645.9	-85.6224
646	-85.6225
646.1	-85.6226
646.2	-85.6226
646.3	-85.6227
646.4	-85.6228
646.5	-85.6229
646.6	-85.6229
646.7	-85.623
646.8	-85.6231
646.9	-85.6231
647	-85.6232
647.1	-85.6233
647.2	-85.6233
647.3	-85.6234
647.4	-85.6235
647.5	-85.6236
647.6	-85.6236
647.7	-85.6237
647.8	-85.6238
647.9	-85.6238
648	-85.6239
648.1	-85.624
648.2	-85.624
648.3	-85.6241
648.4	-85.6242
648.5	-85.6243
648.6	-85.6243
648.7	-85.6244
648.8	-85.6245
648.9	-85.6245
649	-85.6246
649.1	-85.6247
649.2	-85.6247
649.3	-85.6248
649.4	-85.6249
649.5	-85.6249
649.6	-85.625
649.7	-85.6251
649.8	-85.6252
649.9	-85.6252
650	-85.6253
650.1	-85.6254
650.2	-85.6254
650.3	-85.6255
650.4	-85.6256
650.5	-85.6256
650.6	-85.6257
650.7	-85.6258
650.8	-85.6258
650.9	-85.6259
651	-85.626
651.1	-85.626
651.2	-85.6261
651.3	-85.6262
651.4	-85.6263
651.5	-85.6263
651.6	-85.6264
651.7	-85.6265
651.8	-85.6265
651.9	-85.6266
652	-85.6267
652.1	-85.6267
652.2	-85.6268
652.3	-85.6269
652.4	-85.6269
652.5	-85.627
652.6	-85.6271
652.7	-85.6271
652.8	-85.6272
652.9	-85.6273
653	-85.6273
653.1	-85.6274
653.2	-85.6275
653.3	-85.6275
653.4	-85.6276
653.5	-85.6277
653.6	-85.6278
653.7	-85.6278
653.8	-85.6279
653.9	-85.628
654	-85.628
654.1	-85.6281
654.2	-85.6282
654.3	-85.6282
654.4	-85.6283
654.5	-85.6284
654.6	-85.6284
654.7	-85.6285
654.8	-85.6286
654.9	-85.6286
655	-85.6287
655.1	-85.6288
655.2	-85.6288
655.3	-85.6289
655.4	-85.629
655.5	-85.629
655.6	-85.6291
655.7	-85.6292
655.8	-85.6292
655.9	-85.6293
656	-85.6294
656.1	-85.6294
656.2	-85.6295
656.3	-85.6296
656.4	-85.6296
656.5	-85.6297
656.6	-85.6298
656.7	-85.6298
656.8	-85.6299
656.9	-85.63
657	-85.63
657.1	-85.6301
657.2	-85.6302
657.3	-85.6302
657.4	-85.6303
657.5	-85.6304
657.6	-85.6304
657.7	-85.6305
657.8	-85.6306
657.9	-85.6306
658	-85.6307
658.1	-85.6308
658.2	-85.6308
658.3	-85.6309
658.4	-85.631
658.5	-85.631
658.6	-85.6311
658.7	-85.6312
658.8	-85.6312
658.9	-85.6313
659	-85.6314
659.1	-85.6314
659.2	-85.6315
659.3	-85.6316
659.4	-85.6316
659.5	-85.6317
659.6	-85.6318
659.7	-85.6318
659.8	-85.6319
659.9	-85.632
660	-85.632
660.1	-85.6321
660.2	-85.6322
660.3	-85.6322
660.4	-85.6323
660.5	-85.6324
660.6	-85.6324
660.7	-85.6325
660.8	-85.6326
660.9	-85.6326
661	-85.6327
661.1	-85.6328
661.2	-85.6328
661.3	-85.6329
661.4	-85.633
661.5	-85.633
661.6	-85.6331
661.7	-85.6332
661.8	-85.6332
661.9	-85.6333
662	-85.6333
662.1	-85.6334
662.2	-85.6335
662.3	-85.6335
662.4	-85.6336
662.5	-85.6337
662.6	-85.6337
662.7	-85.6338
662.8	-85.6339
662.9	-85.6339
663	-85.634
663.1	-85.6341
663.2	-85.6341
663.3	-85.6342
663.4	-85.6343
663.5	-85.6343
663.6	-85.6344
663.7	-85.6345
663.8	-85.6345
663.9	-85.6346
664	-85.6346
664.1	-85.6347
664.2	-85.6348
664.3	-85.6348
664.4	-85.6349
664.5	-85.635
664.6	-85.635
664.7	-85.6351
664.8	-85.6352
664.9	-85.6352
665	-85.6353
665.1	-85.6354
665.2	-85.6354
665.3	-85.6355
665.4	-85.6356
665.5	-85.6356
665.6	-85.6357
665.7	-85.6357
665.8	-85.6358
665.9	-85.6359
666	-85.6359
666.1	-85.636
666.2	-85.6361
666.3	-85.6361
666.4	-85.6362
666.5	-85.6363
666.6	-85.6363
666.7	-85.6364
666.8	-85.6365
666.9	-85.6365
667	-85.6366
667.1	-85.6366
667.2	-85.6367
667.3	-85.6368
667.4	-85.6368
667.5	-85.6369
667.6	-85.637
667.7	-85.637
667.8	-85.6371
667.9	-85.6372
668	-85.6372
668.1	-85.6373
668.2	-85.6373
668.3	-85.6374
668.4	-85.6375
668.5	-85.6375
668.6	-85.6376
668.7	-85.6377
668.8	-85.6377
668.9	-85.6378
669	-85.6379
669.1	-85.6379
669.2	-85.638
669.3	-85.638
669.4	-85.6381
669.5	-85.6382
669.6	-85.6382
669.7	-85.6383
669.8	-85.6384
669.9	-85.6384
670	-85.6385
670.1	-85.6385
670.2	-85.6386
670.3	-85.6387
670.4	-85.6387
670.5	-85.6388
670.6	-85.6389
670.7	-85.6389
670.8	-85.639
670.9	-85.6391
671	-85.6391
671.1	-85.6392
671.2	-85.6392
671.3	-85.6393
671.4	-85.6394
671.5	-85.6394
671.6	-85.6395
671.7	-85.6396
671.8	-85.6396
671.9	-85.6397
672	-85.6397
672.1	-85.6398
672.2	-85.6399
672.3	-85.6399
672.4	-85.64
672.5	-85.6401
672.6	-85.6401
672.7	-85.6402
672.8	-85.6402
672.9	-85.6403
673	-85.6404
673.1	-85.6404
673.2	-85.6405
673.3	-85.6406
673.4	-85.6406
673.5	-85.6407
673.6	-85.6407
673.7	-85.6408
673.8	-85.6409
673.9	-85.6409
674	-85.641
674.1	-85.641
674.2	-85.6411
674.3	-85.6412
674.4	-85.6412
674.5	-85.6413
674.6	-85.6414
674.7	-85.6414
674.8	-85.6415
674.9	-85.6415
675	-85.6416
675.1	-85.6417
675.2	-85.6417
675.3	-85.6418
675.4	-85.6419
675.5	-85.6419
675.6	-85.642
675.7	-85.642
675.8	-85.6421
675.9	-85.6422
676	-85.6422
676.1	-85.6423
676.2	-85.6423
676.3	-85.6424
676.4	-85.6425
676.5	-85.6425
676.6	-85.6426
676.7	-85.6426
676.8	-85.6427
676.9	-85.6428
677	-85.6428
677.1	-85.6429
677.2	-85.643
677.3	-85.643
677.4	-85.6431
677.5	-85.6431
677.6	-85.6432
677.7	-85.6433
677.8	-85.6433
677.9	-85.6434
678	-85.6434
678.1	-85.6435
678.2	-85.6436
678.3	-85.6436
678.4	-85.6437
678.5	-85.6437
678.6	-85.6438
678.7	-85.6439
678.8	-85.6439
678.9	-85.644
679	-85.6441
679.1	-85.6441
679.2	-85.6442
679.3	-85.6442
679.4	-85.6443
679.5	-85.6444
679.6	-85.6444
679.7	-85.6445
679.8	-85.6445
679.9	-85.6446
680	-85.6447
680.1	-85.6447
680.2	-85.6448
680.3	-85.6448
680.4	-85.6449
680.5	-85.645
680.6	-85.645
680.7	-85.6451
680.8	-85.6451
680.9	-85.6452
681	-85.6453
681.1	-85.6453
681.2	-85.6454
681.3	-85.6454
681.4	-85.6455
681.5	-85.6456
681.6	-85.6456
681.7	-85.6457
681.8	-85.6457
681.9	-85.6458
682	-85.6459
682.1	-85.6459
682.2	-85.646
682.3	-85.646
682.4	-85.6461
682.5	-85.6462
682.6	-85.6462
682.7	-85.6463
682.8	-85.6463
682.9	-85.6464
683	-85.6465
683.1	-85.6465
683.2	-85.6466
683.3	-85.6466
683.4	-85.6467
683.5	-85.6468
683.6	-85.6468
683.7	-85.6469
683.8	-85.6469
683.9	-85.647
684	-85.647
684.1	-85.6471
684.2	-85.6472
684.3	-85.6472
684.4	-85.6473
684.5	-85.6473
684.6	-85.6474
684.7	-85.6475
684.8	-85.6475
684.9	-85.6476
685	-85.6476
685.1	-85.6477
685.2	-85.6478
685.3	-85.6478
685.4	-85.6479
685.5	-85.6479
685.6	-85.648
685.7	-85.6481
685.8	-85.6481
685.9	-85.6482
686	-85.6482
686.1	-85.6483
686.2	-85.6483
686.3	-85.6484
686.4	-85.6485
686.5	-85.6485
686.6	-85.6486
686.7	-85.6486
686.8	-85.6487
686.9	-85.6488
687	-85.6488
687.1	-85.6489
687.2	-85.6489
687.3	-85.649
687.4	-85.649
687.5	-85.6491
687.6	-85.6492
687.7	-85.6492
687.8	-85.6493
687.9	-85.6493
688	-85.6494
688.1	-85.6495
688.2	-85.6495
688.3	-85.6496
688.4	-85.6496
688.5	-85.6497
688.6	-85.6497
688.7	-85.6498
688.8	-85.6499
688.9	-85.6499
689	-85.65
689.1	-85.65
689.2	-85.6501
689.3	-85.6502
689.4	-85.6502
689.5	-85.6503
689.6	-85.6503
689.7	-85.6504
689.8	-85.6504
689.9	-85.6505
690	-85.6506
690.1	-85.6506
690.2	-85.6507
690.3	-85.6507
690.4	-85.6508
690.5	-85.6508
690.6	-85.6509
690.7	-85.651
690.8	-85.651
690.9	-85.6511
691	-85.6511
691.1	-85.6512
691.2	-85.6512
691.3	-85.6513
691.4	-85.6514
691.5	-85.6514
691.6	-85.6515
691.7	-85.6515
691.8	-85.6516
691.9	-85.6517
692	-85.6517
692.1	-85.6518
692.2	-85.6518
692.3	-85.6519
692.4	-85.6519
692.5	-85.652
692.6	-85.6521
692.7	-85.6521
692.8	-85.6522
692.9	-85.6522
693	-85.6523
693.1	-85.6523
693.2	-85.6524
693.3	-85.6524
693.4	-85.6525
693.5	-85.6526
693.6	-85.6526
693.7	-85.6527
693.8	-85.6527
693.9	-85.6528
694	-85.6528
694.1	-85.6529
694.2	-85.653
694.3	-85.653
694.4	-85.6531
694.5	-85.6531
694.6	-85.6532
694.7	-85.6532
694.8	-85.6533
694.9	-85.6534
695	-85.6534
695.1	-85.6535
695.2	-85.6535
695.3	-85.6536
695.4	-85.6536
695.5	-85.6537
695.6	-85.6538
695.7	-85.6538
695.8	-85.6539
695.9	-85.6539
696	-85.654
696.1	-85.654
696.2	-85.6541
696.3	-85.6541
696.4	-85.6542
696.5	-85.6543
696.6	-85.6543
696.7	-85.6544
696.8	-85.6544
696.9	-85.6545
697	-85.6545
697.1	-85.6546
697.2	-85.6546
697.3	-85.6547
697.4	-85.6548
697.5	-85.6548
697.6	-85.6549
697.7	-85.6549
697.8	-85.655
697.9	-85.655
698	-85.6551
698.1	-85.6552
698.2	-85.6552
698.3	-85.6553
698.4	-85.6553
698.5	-85.6554
698.6	-85.6554
698.7	-85.6555
698.8	-85.6555
698.9	-85.6556
699	-85.6557
699.1	-85.6557
699.2	-85.6558
699.3	-85.6558
699.4	-85.6559
699.5	-85.6559
699.6	-85.656
699.7	-85.656
699.8	-85.6561
699.9	-85.6562
700	-85.6562
700.1	-85.6563
700.2	-85.6563
700.3	-85.6564
700.4	-85.6564
700.5	-85.6565
700.6	-85.6565
700.7	-85.6566
700.8	-85.6566
700.9	-85.6567
701	-85.6568
701.1	-85.6568
701.2	-85.6569
701.3	-85.6569
701.4	-85.657
701.5	-85.657
701.6	-85.6571
701.7	-85.6571
701.8	-85.6572
701.9	-85.6573
702	-85.6573
702.1	-85.6574
702.2	-85.6574
702.3	-85.6575
702.4	-85.6575
702.5	-85.6576
702.6	-85.6576
702.7	-85.6577
702.8	-85.6577
702.9	-85.6578
703	-85.6579
703.1	-85.6579
703.2	-85.658
703.3	-85.658
703.4	-85.6581
703.5	-85.6581
703.6	-85.6582
703.7	-85.6582
703.8	-85.6583
703.9	-85.6583
704	-85.6584
704.1	-85.6585
704.2	-85.6585
704.3	-85.6586
704.4	-85.6586
704.5	-85.6587
704.6	-85.6587
704.7	-85.6588
704.8	-85.6588
704.9	-85.6589
705	-85.6589
705.1	-85.659
705.2	-85.659
705.3	-85.6591
705.4	-85.6592
705.5	-85.6592
705.6	-85.6593
705.7	-85.6593
705.8	-85.6594
705.9	-85.6594
706	-85.6595
706.1	-85.6595
706.2	-85.6596
706.3	-85.6596
706.4	-85.6597
706.5	-85.6597
706.6	-85.6598
706.7	-85.6599
706.8	-85.6599
706.9	-85.66
707	-85.66
707.1	-85.6601
707.2	-85.6601
707.3	-85.6602
707.4	-85.6602
707.5	-85.6603
707.6	-85.6603
707.7	-85.6604
707.8	-85.6604
707.9	-85.6605
708	-85.6605
708.1	-85.6606
708.2	-85.6607
708.3	-85.6607
708.4	-85.6608
708.5	-85.6608
708.6	-85.6609
708.7	-85.6609
708.8	-85.661
708.9	-85.661
709	-85.6611
709.1	-85.6611
709.2	-85.6612
709.3	-85.6612
709.4	-85.6613
709.5	-85.6613
709.6	-85.6614
709.7	-85.6615
709.8	-85.6615
709.9	-85.6616
710	-85.6616
710.1	-85.6617
710.2	-85.6617
710.3	-85.6618
710.4	-85.6618
710.5	-85.6619
710.6	-85.6619
710.7	-85.662
710.8	-85.662
710.9	-85.6621
711	-85.6621
711.1	-85.6622
711.2	-85.6622
711.3	-85.6623
711.4	-85.6623
711.5	-85.6624
711.6	-85.6625
711.7	-85.6625
711.8	-85.6626
711.9	-85.6626
712	-85.6627
712.1	-85.6627
712.2	-85.6628
712.3	-85.6628
712.4	-85.6629
712.5	-85.6629
712.6	-85.663
712.7	-85.663
712.8	-85.6631
712.9	-85.6631
713	-85.6632
713.1	-85.6632
713.2	-85.6633
713.3	-85.6633
713.4	-85.6634
713.5	-85.6634
713.6	-85.6635
713.7	-85.6636
713.8	-85.6636
713.9	-85.6637
714	-85.6637
714.1	-85.6638
714.2	-85.6638
714.3	-85.6639
714.4	-85.6639
714.5	-85.664
714.6	-85.664
714.7	-85.6641
714.8	-85.6641
714.9	-85.6642
715	-85.6642
715.1	-85.6643
715.2	-85.6643
715.3	-85.6644
715.4	-85.6644
715.5	-85.6645
715.6	-85.6645
715.7	-85.6646
715.8	-85.6646
715.9	-85.6647
716	-85.6647
716.1	-85.6648
716.2	-85.6648
716.3	-85.6649
716.4	-85.6649
716.5	-85.665
716.6	-85.6651
716.7	-85.6651
716.8	-85.6652
716.9	-85.6652
717	-85.6653
717.1	-85.6653
717.2	-85.6654
717.3	-85.6654
717.4	-85.6655
717.5	-85.6655
717.6	-85.6656
717.7	-85.6656
717.8	-85.6657
717.9	-85.6657
718	-85.6658
718.1	-85.6658
718.2	-85.6659
718.3	-85.6659
718.4	-85.666
718.5	-85.666
718.6	-85.6661
718.7	-85.6661
718.8	-85.6662
718.9	-85.6662
719	-85.6663
719.1	-85.6663
719.2	-85.6664
719.3	-85.6664
719.4	-85.6665
719.5	-85.6665
719.6	-85.6666
719.7	-85.6666
719.8	-85.6667
719.9	-85.6667
720	-85.6668
720.1	-85.6668
720.2	-85.6669
720.3	-85.6669
720.4	-85.667
720.5	-85.667
720.6	-85.6671
720.7	-85.6671
720.8	-85.6672
720.9	-85.6672
721	-85.6673
721.1	-85.6673
721.2	-85.6674
721.3	-85.6674
721.4	-85.6675
721.5	-85.6675
721.6	-85.6676
721.7	-85.6676
721.8	-85.6677
721.9	-85.6677
722	-85.6678
722.1	-85.6678
722.2	-85.6679
722.3	-85.6679
722.4	-85.668
722.5	-85.668
722.6	-85.6681
722.7	-85.6681
722.8	-85.6682
722.9	-85.6682
723	-85.6683
723.1	-85.6683
723.2	-85.6684
723.3	-85.6684
723.4	-85.6685
723.5	-85.6685
723.6	-85.6686
723.7	-85.6686
723.8	-85.6687
723.9	-85.6687
724	-85.6688
724.1	-85.6688
724.2	-85.6689
724.3	-85.6689
724.4	-85.669
724.5	-85.669
724.6	-85.6691
724.7	-85.6691
724.8	-85.6692
724.9	-85.6692
725	-85.6693
725.1	-85.6693
725.2	-85.6694
725.3	-85.6694
725.4	-85.6695
725.5	-85.6695
725.6	-85.6696
725.7	-85.6696
725.8	-85.6697
725.9	-85.6697
726	-85.6698
726.1	-85.6698
726.2	-85.6699
726.3	-85.6699
726.4	-85.67
726.5	-85.67
726.6	-85.6701
726.7	-85.6701
726.8	-85.6702
726.9	-85.6702
727	-85.6703
727.1	-85.6703
727.2	-85.6704
727.3	-85.6704
727.4	-85.6705
727.5	-85.6705
727.6	-85.6706
727.7	-85.6706
727.8	-85.6707
727.9	-85.6707
728	-85.6708
728.1	-85.6708
728.2	-85.6709
728.3	-85.6709
728.4	-85.671
728.5	-85.671
728.6	-85.6711
728.7	-85.6711
728.8	-85.6712
728.9	-85.6712
729	-85.6713
729.1	-85.6713
729.2	-85.6713
729.3	-85.6714
729.4	-85.6714
729.5	-85.6715
729.6	-85.6715
729.7	-85.6716
729.8	-85.6716
729.9	-85.6717
730	-85.6717
730.1	-85.6718
730.2	-85.6718
730.3	-85.6719
730.4	-85.6719
730.5	-85.672
730.6	-85.672
730.7	-85.6721
730.8	-85.6721
730.9	-85.6722
731	-85.6722
731.1	-85.6723
731.2	-85.6723
731.3	-85.6724
731.4	-85.6724
731.5	-85.6725
731.6	-85.6725
731.7	-85.6726
731.8	-85.6726
731.9	-85.6727
732	-85.6727
732.1	-85.6727
732.2	-85.6728
732.3	-85.6728
732.4	-85.6729
732.5	-85.6729
732.6	-85.673
732.7	-85.673
732.8	-85.6731
732.9	-85.6731
733	-85.6732
733.1	-85.6732
733.2	-85.6733
733.3	-85.6733
733.4	-85.6734
733.5	-85.6734
733.6	-85.6735
733.7	-85.6735
733.8	-85.6736
733.9	-85.6736
734	-85.6737
734.1	-85.6737
734.2	-85.6738
734.3	-85.6738
734.4	-85.6738
734.5	-85.6739
734.6	-85.6739
734.7	-85.674
734.8	-85.674
734.9	-85.6741
735	-85.6741
735.1	-85.6742
735.2	-85.6742
735.3	-85.6743
735.4	-85.6743
735.5	-85.6744
735.6	-85.6744
735.7	-85.6745
735.8	-85.6745
735.9	-85.6746
736	-85.6746
736.1	-85.6747
736.2	-85.6747
736.3	-85.6747
736.4	-85.6748
736.5	-85.6748
736.6	-85.6749
736.7	-85.6749
736.8	-85.675
736.9	-85.675
737	-85.6751
737.1	-85.6751
737.2	-85.6752
737.3	-85.6752
737.4	-85.6753
737.5	-85.6753
737.6	-85.6754
737.7	-85.6754
737.8	-85.6755
737.9	-85.6755
738	-85.6755
738.1	-85.6756
738.2	-85.6756
738.3	-85.6757
738.4	-85.6757
738.5	-85.6758
738.6	-85.6758
738.7	-85.6759
738.8	-85.6759
738.9	-85.676
739	-85.676
739.1	-85.6761
739.2	-85.6761
739.3	-85.6762
739.4	-85.6762
739.5	-85.6762
739.6	-85.6763
739.7	-85.6763
739.8	-85.6764
739.9	-85.6764
740	-85.6765
740.1	-85.6765
740.2	-85.6766
740.3	-85.6766
740.4	-85.6767
740.5	-85.6767
740.6	-85.6768
740.7	-85.6768
740.8	-85.6768
740.9	-85.6769
741	-85.6769
741.1	-85.677
741.2	-85.677
741.3	-85.6771
741.4	-85.6771
741.5	-85.6772
741.6	-85.6772
741.7	-85.6773
741.8	-85.6773
741.9	-85.6774
742	-85.6774
742.1	-85.6774
742.2	-85.6775
742.3	-85.6775
742.4	-85.6776
742.5	-85.6776
742.6	-85.6777
742.7	-85.6777
742.8	-85.6778
742.9	-85.6778
743	-85.6779
743.1	-85.6779
743.2	-85.678
743.3	-85.678
743.4	-85.678
743.5	-85.6781
743.6	-85.6781
743.7	-85.6782
743.8	-85.6782
743.9	-85.6783
744	-85.6783
744.1	-85.6784
744.2	-85.6784
744.3	-85.6785
744.4	-85.6785
744.5	-85.6785
744.6	-85.6786
744.7	-85.6786
744.8	-85.6787
744.9	-85.6787
745	-85.6788
745.1	-85.6788
745.2	-85.6789
745.3	-85.6789
745.4	-85.679
745.5	-85.679
745.6	-85.679
745.7	-85.6791
745.8	-85.6791
745.9	-85.6792
746	-85.6792
746.1	-85.6793
746.2	-85.6793
746.3	-85.6794
746.4	-85.6794
746.5	-85.6794
746.6	-85.6795
746.7	-85.6795
746.8	-85.6796
746.9	-85.6796
747	-85.6797
747.1	-85.6797
747.2	-85.6798
747.3	-85.6798
747.4	-85.6799
747.5	-85.6799
747.6	-85.6799
747.7	-85.68
747.8	-85.68
747.9	-85.6801
748	-85.6801
748.1	-85.6802
748.2	-85.6802
748.3	-85.6803
748.4	-85.6803
748.5	-85.6803
748.6	-85.6804
748.7	-85.6804
748.8	-85.6805
748.9	-85.6805
749	-85.6806
749.1	-85.6806
749.2	-85.6807
749.3	-85.6807
749.4	-85.6807
749.5	-85.6808
749.6	-85.6808
749.7	-85.6809
749.8	-85.6809
749.9	-85.681
750	-85.681
750.1	-85.6811
750.2	-85.6811
750.3	-85.6811
750.4	-85.6812
750.5	-85.6812
750.6	-85.6813
750.7	-85.6813
750.8	-85.6814
750.9	-85.6814
751	-85.6815
751.1	-85.6815
751.2	-85.6815
751.3	-85.6816
751.4	-85.6816
751.5	-85.6817
751.6	-85.6817
751.7	-85.6818
751.8	-85.6818
751.9	-85.6819
752	-85.6819
752.1	-85.6819
752.2	-85.682
752.3	-85.682
752.4	-85.6821
752.5	-85.6821
752.6	-85.6822
752.7	-85.6822
752.8	-85.6823
752.9	-85.6823
753	-85.6823
753.1	-85.6824
753.2	-85.6824
753.3	-85.6825
753.4	-85.6825
753.5	-85.6826
753.6	-85.6826
753.7	-85.6826
753.8	-85.6827
753.9	-85.6827
754	-85.6828
754.1	-85.6828
754.2	-85.6829
754.3	-85.6829
754.4	-85.683
754.5	-85.683
754.6	-85.683
754.7	-85.6831
754.8	-85.6831
754.9	-85.6832
755	-85.6832
755.1	-85.6833
755.2	-85.6833
755.3	-85.6833
755.4	-85.6834
755.5	-85.6834
755.6	-85.6835
755.7	-85.6835
755.8	-85.6836
755.9	-85.6836
756	-85.6836
756.1	-85.6837
756.2	-85.6837
756.3	-85.6838
756.4	-85.6838
756.5	-85.6839
756.6	-85.6839
756.7	-85.6839
756.8	-85.684
756.9	-85.684
757	-85.6841
757.1	-85.6841
757.2	-85.6842
757.3	-85.6842
757.4	-85.6843
757.5	-85.6843
757.6	-85.6843
757.7	-85.6844
757.8	-85.6844
757.9	-85.6845
758	-85.6845
758.1	-85.6846
758.2	-85.6846
758.3	-85.6846
758.4	-85.6847
758.5	-85.6847
758.6	-85.6848
758.7	-85.6848
758.8	-85.6849
758.9	-85.6849
759	-85.6849
759.1	-85.685
759.2	-85.685
759.3	-85.6851
759.4	-85.6851
759.5	-85.6851
759.6	-85.6852
759.7	-85.6852
759.8	-85.6853
759.9	-85.6853
760	-85.6854
760.1	-85.6854
760.2	-85.6854
760.3	-85.6855
760.4	-85.6855
760.5	-85.6856
760.6	-85.6856
760.7	-85.6857
760.8	-85.6857
760.9	-85.6857
761	-85.6858
761.1	-85.6858
761.2	-85.6859
761.3	-85.6859
761.4	-85.686
761.5	-85.686
761.6	-85.686
761.7	-85.6861
761.8	-85.6861
761.9	-85.6862
762	-85.6862
762.1	-85.6863
762.2	-85.6863
762.3	-85.6863
762.4	-85.6864
762.5	-85.6864
762.6	-85.6865
762.7	-85.6865
762.8	-85.6865
762.9	-85.6866
763	-85.6866
763.1	-85.6867
763.2	-85.6867
763.3	-85.6868
763.4	-85.6868
763.5	-85.6868
763.6	-85.6869
763.7	-85.6869
763.8	-85.687
763.9	-85.687
764	-85.687
764.1	-85.6871
764.2	-85.6871
764.3	-85.6872
764.4	-85.6872
764.5	-85.6873
764.6	-85.6873
764.7	-85.6873
764.8	-85.6874
764.9	-85.6874
765	-85.6875
765.1	-85.6875
765.2	-85.6875
765.3	-85.6876
765.4	-85.6876
765.5	-85.6877
765.6	-85.6877
765.7	-85.6878
765.8	-85.6878
765.9	-85.6878
766	-85.6879
766.1	-85.6879
766.2	-85.688
766.3	-85.688
766.4	-85.688
766.5	-85.6881
766.6	-85.6881
766.7	-85.6882
766.8	-85.6882
766.9	-85.6883
767	-85.6883
767.1	-85.6883
767.2	-85.6884
767.3	-85.6884
767.4	-85.6885
767.5	-85.6885
767.6	-85.6885
767.7	-85.6886
767.8	-85.6886
767.9	-85.6887
768	-85.6887
768.1	-85.6887
768.2	-85.6888
768.3	-85.6888
768.4	-85.6889
768.5	-85.6889
768.6	-85.689
768.7	-85.689
768.8	-85.689
768.9	-85.6891
769	-85.6891
769.1	-85.6892
769.2	-85.6892
769.3	-85.6892
769.4	-85.6893
769.5	-85.6893
769.6	-85.6894
769.7	-85.6894
769.8	-85.6894
769.9	-85.6895
770	-85.6895
770.1	-85.6896
770.2	-85.6896
770.3	-85.6896
770.4	-85.6897
770.5	-85.6897
770.6	-85.6898
770.7	-85.6898
770.8	-85.6899
770.9	-85.6899
771	-85.6899
771.1	-85.69
771.2	-85.69
771.3	-85.6901
771.4	-85.6901
771.5	-85.6901
771.6	-85.6902
771.7	-85.6902
771.8	-85.6903
771.9	-85.6903
772	-85.6903
772.1	-85.6904
772.2	-85.6904
772.3	-85.6905
772.4	-85.6905
772.5	-85.6905
772.6	-85.6906
772.7	-85.6906
772.8	-85.6907
772.9	-85.6907
773	-85.6907
773.1	-85.6908
773.2	-85.6908
773.3	-85.6909
773.4	-85.6909
773.5	-85.6909
773.6	-85.691
773.7	-85.691
773.8	-85.6911
773.9	-85.6911
774	-85.6911
774.1	-85.6912
774.2	-85.6912
774.3	-85.6913
774.4	-85.6913
774.5	-85.6913
774.6	-85.6914
774.7	-85.6914
774.8	-85.6915
774.9	-85.6915
775	-85.6915
775.1	-85.6916
775.2	-85.6916
775.3	-85.6917
775.4	-85.6917
775.5	-85.6917
775.6	-85.6918
775.7	-85.6918
775.8	-85.6919
775.9	-85.6919
776	-85.6919
776.1	-85.692
776.2	-85.692
776.3	-85.6921
776.4	-85.6921
776.5	-85.6921
776.6	-85.6922
776.7	-85.6922
776.8	-85.6923
776.9	-85.6923
777	-85.6923
777.1	-85.6924
777.2	-85.6924
777.3	-85.6925
777.4	-85.6925
777.5	-85.6925
777.6	-85.6926
777.7	-85.6926
777.8	-85.6926
777.9	-85.6927
778	-85.6927
778.1	-85.6928
778.2	-85.6928
778.3	-85.6928
778.4	-85.6929
778.5	-85.6929
778.6	-85.693
778.7	-85.693
778.8	-85.693
778.9	-85.6931
779	-85.6931
779.1	-85.6932
779.2	-85.6932
779.3	-85.6932
779.4	-85.6933
779.5	-85.6933
779.6	-85.6934
779.7	-85.6934
779.8	-85.6934
779.9	-85.6935
780	-85.6935
780.1	-85.6936
780.2	-85.6936
780.3	-85.6936
780.4	-85.6937
780.5	-85.6937
780.6	-85.6937
780.7	-85.6938
780.8	-85.6938
780.9	-85.6939
781	-85.6939
781.1	-85.6939
781.2	-85.694
781.3	-85.694
781.4	-85.6941
781.5	-85.6941
781.6	-85.6941
781.7	-85.6942
781.8	-85.6942
781.9	-85.6942
782	-85.6943
782.1	-85.6943
782.2	-85.6944
782.3	-85.6944
782.4	-85.6944
782.5	-85.6945
782.6	-85.6945
782.7	-85.6946
782.8	-85.6946
782.9	-85.6946
783	-85.6947
783.1	-85.6947
783.2	-85.6948
783.3	-85.6948
783.4	-85.6948
783.5	-85.6949
783.6	-85.6949
783.7	-85.6949
783.8	-85.695
783.9	-85.695
784	-85.6951
784.1	-85.6951
784.2	-85.6951
784.3	-85.6952
784.4	-85.6952
784.5	-85.6953
784.6	-85.6953
784.7	-85.6953
784.8	-85.6954
784.9	-85.6954
785	-85.6954
785.1	-85.6955
785.2	-85.6955
785.3	-85.6956
785.4	-85.6956
785.5	-85.6956
785.6	-85.6957
785.7	-85.6957
785.8	-85.6957
785.9	-85.6958
786	-85.6958
786.1	-85.6959
786.2	-85.6959
786.3	-85.6959
786.4	-85.696
786.5	-85.696
786.6	-85.6961
786.7	-85.6961
786.8	-85.6961
786.9	-85.6962
787	-85.6962
787.1	-85.6962
787.2	-85.6963
787.3	-85.6963
787.4	-85.6964
787.5	-85.6964
787.6	-85.6964
787.7	-85.6965
787.8	-85.6965
787.9	-85.6965
788	-85.6966
788.1	-85.6966
788.2	-85.6967
788.3	-85.6967
788.4	-85.6967
788.5	-85.6968
788.6	-85.6968
788.7	-85.6968
788.8	-85.6969
788.9	-85.6969
789	-85.697
789.1	-85.697
789.2	-85.697
789.3	-85.6971
789.4	-85.6971
789.5	-85.6971
789.6	-85.6972
789.7	-85.6972
789.8	-85.6973
789.9	-85.6973
790	-85.6973
790.1	-85.6974
790.2	-85.6974
790.3	-85.6974
790.4	-85.6975
790.5	-85.6975
790.6	-85.6976
790.7	-85.6976
790.8	-85.6976
790.9	-85.6977
791	-85.6977
791.1	-85.6977
791.2	-85.6978
791.3	-85.6978
791.4	-85.6979
791.5	-85.6979
791.6	-85.6979
791.7	-85.698
791.8	-85.698
791.9	-85.698
792	-85.6981
792.1	-85.6981
792.2	-85.6981
792.3	-85.6982
792.4	-85.6982
792.5	-85.6983
792.6	-85.6983
792.7	-85.6983
792.8	-85.6984
792.9	-85.6984
793	-85.6984
793.1	-85.6985
793.2	-85.6985
793.3	-85.6986
793.4	-85.6986
793.5	-85.6986
793.6	-85.6987
793.7	-85.6987
793.8	-85.6987
793.9	-85.6988
794	-85.6988
794.1	-85.6988
794.2	-85.6989
794.3	-85.6989
794.4	-85.699
794.5	-85.699
794.6	-85.699
794.7	-85.6991
794.8	-85.6991
794.9	-85.6991
795	-85.6992
795.1	-85.6992
795.2	-85.6993
795.3	-85.6993
795.4	-85.6993
795.5	-85.6994
795.6	-85.6994
795.7	-85.6994
795.8	-85.6995
795.9	-85.6995
796	-85.6995
796.1	-85.6996
796.2	-85.6996
796.3	-85.6997
796.4	-85.6997
796.5	-85.6997
796.6	-85.6998
796.7	-85.6998
796.8	-85.6998
796.9	-85.6999
797	-85.6999
797.1	-85.6999
797.2	-85.7
797.3	-85.7
797.4	-85.7001
797.5	-85.7001
797.6	-85.7001
797.7	-85.7002
797.8	-85.7002
797.9	-85.7002
798	-85.7003
798.1	-85.7003
798.2	-85.7003
798.3	-85.7004
798.4	-85.7004
798.5	-85.7005
798.6	-85.7005
798.7	-85.7005
798.8	-85.7006
798.9	-85.7006
799	-85.7006
799.1	-85.7007
799.2	-85.7007
799.3	-85.7007
799.4	-85.7008
799.5	-85.7008
799.6	-85.7008
799.7	-85.7009
799.8	-85.7009
799.9	-85.701
800	-85.701
800.1	-85.701
800.2	-85.7011
800.3	-85.7011
800.4	-85.7011
800.5	-85.7012
800.6	-85.7012
800.7	-85.7012
800.8	-85.7013
800.9	-85.7013
801	-85.7013
801.1	-85.7014
801.2	-85.7014
801.3	-85.7015
801.4	-85.7015
801.5	-85.7015
801.6	-85.7016
801.7	-85.7016
801.8	-85.7016
801.9	-85.7017
802	-85.7017
802.1	-85.7017
802.2	-85.7018
802.3	-85.7018
802.4	-85.7018
802.5	-85.7019
802.6	-85.7019
802.7	-85.702
802.8	-85.702
802.9	-85.702
803	-85.7021
803.1	-85.7021
803.2	-85.7021
803.3	-85.7022
803.4	-85.7022
803.5	-85.7022
803.6	-85.7023
803.7	-85.7023
803.8	-85.7023
803.9	-85.7024
804	-85.7024
804.1	-85.7024
804.2	-85.7025
804.3	-85.7025
804.4	-85.7026
804.5	-85.7026
804.6	-85.7026
804.7	-85.7027
804.8	-85.7027
804.9	-85.7027
805	-85.7028
805.1	-85.7028
805.2	-85.7028
805.3	-85.7029
805.4	-85.7029
805.5	-85.7029
805.6	-85.703
805.7	-85.703
805.8	-85.703
805.9	-85.7031
806	-85.7031
806.1	-85.7031
806.2	-85.7032
806.3	-85.7032
806.4	-85.7032
806.5	-85.7033
806.6	-85.7033
806.7	-85.7034
806.8	-85.7034
806.9	-85.7034
807	-85.7035
807.1	-85.7035
807.2	-85.7035
807.3	-85.7036
807.4	-85.7036
807.5	-85.7036
807.6	-85.7037
807.7	-85.7037
807.8	-85.7037
807.9	-85.7038
808	-85.7038
808.1	-85.7038
808.2	-85.7039
808.3	-85.7039
808.4	-85.7039
808.5	-85.704
808.6	-85.704
808.7	-85.704
808.8	-85.7041
808.9	-85.7041
809	-85.7042
809.1	-85.7042
809.2	-85.7042
809.3	-85.7043
809.4	-85.7043
809.5	-85.7043
809.6	-85.7044
809.7	-85.7044
809.8	-85.7044
809.9	-85.7045
810	-85.7045
810.1	-85.7045
810.2	-85.7046
810.3	-85.7046
810.4	-85.7046
810.5	-85.7047
810.6	-85.7047
810.7	-85.7047
810.8	-85.7048
810.9	-85.7048
811	-85.7048
811.1	-85.7049
811.2	-85.7049
811.3	-85.7049
811.4	-85.705
811.5	-85.705
811.6	-85.705
811.7	-85.7051
811.8	-85.7051
811.9	-85.7051
812	-85.7052
812.1	-85.7052
812.2	-85.7052
812.3	-85.7053
812.4	-85.7053
812.5	-85.7053
812.6	-85.7054
812.7	-85.7054
812.8	-85.7054
812.9	-85.7055
813	-85.7055
813.1	-85.7056
813.2	-85.7056
813.3	-85.7056
813.4	-85.7057
813.5	-85.7057
813.6	-85.7057
813.7	-85.7058
813.8	-85.7058
813.9	-85.7058
814	-85.7059
814.1	-85.7059
814.2	-85.7059
814.3	-85.706
814.4	-85.706
814.5	-85.706
814.6	-85.7061
814.7	-85.7061
814.8	-85.7061
814.9	-85.7062
815	-85.7062
815.1	-85.7062
815.2	-85.7063
815.3	-85.7063
815.4	-85.7063
815.5	-85.7064
815.6	-85.7064
815.7	-85.7064
815.8	-85.7065
815.9	-85.7065
816	-85.7065
816.1	-85.7066
816.2	-85.7066
816.3	-85.7066
816.4	-85.7067
816.5	-85.7067
816.6	-85.7067
816.7	-85.7068
816.8	-85.7068
816.9	-85.7068
817	-85.7069
817.1	-85.7069
817.2	-85.7069
817.3	-85.707
817.4	-85.707
817.5	-85.707
817.6	-85.7071
817.7	-85.7071
817.8	-85.7071
817.9	-85.7072
818	-85.7072
818.1	-85.7072
818.2	-85.7073
818.3	-85.7073
818.4	-85.7073
818.5	-85.7074
818.6	-85.7074
818.7	-85.7074
818.8	-85.7075
818.9	-85.7075
819	-85.7075
819.1	-85.7076
819.2	-85.7076
819.3	-85.7076
819.4	-85.7077
819.5	-85.7077
819.6	-85.7077
819.7	-85.7078
819.8	-85.7078
819.9	-85.7078
820	-85.7079
820.1	-85.7079
820.2	-85.7079
820.3	-85.708
820.4	-85.708
820.5	-85.708
820.6	-85.708
820.7	-85.7081
820.8	-85.7081
820.9	-85.7081
821	-85.7082
821.1	-85.7082
821.2	-85.7082
821.3	-85.7083
821.4	-85.7083
821.5	-85.7083
821.6	-85.7084
821.7	-85.7084
821.8	-85.7084
821.9	-85.7085
822	-85.7085
822.1	-85.7085
822.2	-85.7086
822.3	-85.7086
822.4	-85.7086
822.5	-85.7087
822.6	-85.7087
822.7	-85.7087
822.8	-85.7088
822.9	-85.7088
823	-85.7088
823.1	-85.7089
823.2	-85.7089
823.3	-85.7089
823.4	-85.709
823.5	-85.709
823.6	-85.709
823.7	-85.7091
823.8	-85.7091
823.9	-85.7091
824	-85.7092
824.1	-85.7092
824.2	-85.7092
824.3	-85.7093
824.4	-85.7093
824.5	-85.7093
824.6	-85.7094
824.7	-85.7094
824.8	-85.7094
824.9	-85.7094
825	-85.7095
825.1	-85.7095
825.2	-85.7095
825.3	-85.7096
825.4	-85.7096
825.5	-85.7096
825.6	-85.7097
825.7	-85.7097
825.8	-85.7097
825.9	-85.7098
826	-85.7098
826.1	-85.7098
826.2	-85.7099
826.3	-85.7099
826.4	-85.7099
826.5	-85.71
826.6	-85.71
826.7	-85.71
826.8	-85.7101
826.9	-85.7101
827	-85.7101
827.1	-85.7102
827.2	-85.7102
827.3	-85.7102
827.4	-85.7102
827.5	-85.7103
827.6	-85.7103
827.7	-85.7103
827.8	-85.7104
827.9	-85.7104
828	-85.7104
828.1	-85.7105
828.2	-85.7105
828.3	-85.7105
828.4	-85.7106
828.5	-85.7106
828.6	-85.7106
828.7	-85.7107
828.8	-85.7107
828.9	-85.7107
829	-85.7108
829.1	-85.7108
829.2	-85.7108
829.3	-85.7108
829.4	-85.7109
829.5	-85.7109
829.6	-85.7109
829.7	-85.711
829.8	-85.711
829.9	-85.711
830	-85.7111
830.1	-85.7111
830.2	-85.7111
830.3	-85.7112
830.4	-85.7112
830.5	-85.7112
830.6	-85.7113
830.7	-85.7113
830.8	-85.7113
830.9	-85.7114
831	-85.7114
831.1	-85.7114
831.2	-85.7114
831.3	-85.7115
831.4	-85.7115
831.5	-85.7115
831.6	-85.7116
831.7	-85.7116
831.8	-85.7116
831.9	-85.7117
832	-85.7117
832.1	-85.7117
832.2	-85.7118
832.3	-85.7118
832.4	-85.7118
832.5	-85.7119
832.6	-85.7119
832.7	-85.7119
832.8	-85.7119
832.9	-85.712
833	-85.712
833.1	-85.712
833.2	-85.7121
833.3	-85.7121
833.4	-85.7121
833.5	-85.7122
833.6	-85.7122
833.7	-85.7122
833.8	-85.7123
833.9	-85.7123
834	-85.7123
834.1	-85.7124
834.2	-85.7124
834.3	-85.7124
834.4	-85.7124
834.5	-85.7125
834.6	-85.7125
834.7	-85.7125
834.8	-85.7126
834.9	-85.7126
835	-85.7126
835.1	-85.7127
835.2	-85.7127
835.3	-85.7127
835.4	-85.7128
835.5	-85.7128
835.6	-85.7128
835.7	-85.7128
835.8	-85.7129
835.9	-85.7129
836	-85.7129
836.1	-85.713
836.2	-85.713
836.3	-85.713
836.4	-85.7131
836.5	-85.7131
836.6	-85.7131
836.7	-85.7132
836.8	-85.7132
836.9	-85.7132
837	-85.7132
837.1	-85.7133
837.2	-85.7133
837.3	-85.7133
837.4	-85.7134
837.5	-85.7134
837.6	-85.7134
837.7	-85.7135
837.8	-85.7135
837.9	-85.7135
838	-85.7135
838.1	-85.7136
838.2	-85.7136
838.3	-85.7136
838.4	-85.7137
838.5	-85.7137
838.6	-85.7137
838.7	-85.7138
838.8	-85.7138
838.9	-85.7138
839	-85.7139
839.1	-85.7139
839.2	-85.7139
839.3	-85.7139
839.4	-85.714
839.5	-85.714
839.6	-85.714
839.7	-85.7141
839.8	-85.7141
839.9	-85.7141
840	-85.7142
840.1	-85.7142
840.2	-85.7142
840.3	-85.7142
840.4	-85.7143
840.5	-85.7143
840.6	-85.7143
840.7	-85.7144
840.8	-85.7144
840.9	-85.7144
841	-85.7145
841.1	-85.7145
841.2	-85.7145
841.3	-85.7145
841.4	-85.7146
841.5	-85.7146
841.6	-85.7146
841.7	-85.7147
841.8	-85.7147
841.9	-85.7147
842	-85.7148
842.1	-85.7148
842.2	-85.7148
842.3	-85.7148
842.4	-85.7149
842.5	-85.7149
842.6	-85.7149
842.7	-85.715
842.8	-85.715
842.9	-85.715
843	-85.7151
843.1	-85.7151
843.2	-85.7151
843.3	-85.7151
843.4	-85.7152
843.5	-85.7152
843.6	-85.7152
843.7	-85.7153
843.8	-85.7153
843.9	-85.7153
844	-85.7154
844.1	-85.7154
844.2	-85.7154
844.3	-85.7154
844.4	-85.7155
844.5	-85.7155
844.6	-85.7155
844.7	-85.7156
844.8	-85.7156
844.9	-85.7156
845	-85.7156
845.1	-85.7157
845.2	-85.7157
845.3	-85.7157
845.4	-85.7158
845.5	-85.7158
845.6	-85.7158
845.7	-85.7159
845.8	-85.7159
845.9	-85.7159
846	-85.7159
846.1	-85.716
846.2	-85.716
846.3	-85.716
846.4	-85.7161
846.5	-85.7161
846.6	-85.7161
846.7	-85.7161
846.8	-85.7162
846.9	-85.7162
847	-85.7162
847.1	-85.7163
847.2	-85.7163
847.3	-85.7163
847.4	-85.7164
847.5	-85.7164
847.6	-85.7164
847.7	-85.7164
847.8	-85.7165
847.9	-85.7165
848	-85.7165
848.1	-85.7166
848.2	-85.7166
848.3	-85.7166
848.4	-85.7166
848.5	-85.7167
848.6	-85.7167
848.7	-85.7167
848.8	-85.7168
848.9	-85.7168
849	-85.7168
849.1	-85.7168
849.2	-85.7169
849.3	-85.7169
849.4	-85.7169
849.5	-85.717
849.6	-85.717
849.7	-85.717
849.8	-85.7171
849.9	-85.7171
850	-85.7171
850.1	-85.7171
850.2	-85.7172
850.3	-85.7172
850.4	-85.7172
850.5	-85.7173
850.6	-85.7173
850.7	-85.7173
850.8	-85.7173
850.9	-85.7174
851	-85.7174
851.1	-85.7174
851.2	-85.7175
851.3	-85.7175
851.4	-85.7175
851.5	-85.7175
851.6	-85.7176
851.7	-85.7176
851.8	-85.7176
851.9	-85.7177
852	-85.7177
852.1	-85.7177
852.2	-85.7177
852.3	-85.7178
852.4	-85.7178
852.5	-85.7178
852.6	-85.7179
852.7	-85.7179
852.8	-85.7179
852.9	-85.7179
853	-85.718
853.1	-85.718
853.2	-85.718
853.3	-85.7181
853.4	-85.7181
853.5	-85.7181
853.6	-85.7181
853.7	-85.7182
853.8	-85.7182
853.9	-85.7182
854	-85.7183
854.1	-85.7183
854.2	-85.7183
854.3	-85.7183
854.4	-85.7184
854.5	-85.7184
854.6	-85.7184
854.7	-85.7185
854.8	-85.7185
854.9	-85.7185
855	-85.7185
855.1	-85.7186
855.2	-85.7186
855.3	-85.7186
855.4	-85.7187
855.5	-85.7187
855.6	-85.7187
855.7	-85.7187
855.8	-85.7188
855.9	-85.7188
856	-85.7188
856.1	-85.7189
856.2	-85.7189
856.3	-85.7189
856.4	-85.7189
856.5	-85.719
856.6	-85.719
856.7	-85.719
856.8	-85.719
856.9	-85.7191
857	-85.7191
857.1	-85.7191
857.2	-85.7192
857.3	-85.7192
857.4	-85.7192
857.5	-85.7192
857.6	-85.7193
857.7	-85.7193
857.8	-85.7193
857.9	-85.7194
858	-85.7194
858.1	-85.7194
858.2	-85.7194
858.3	-85.7195
858.4	-85.7195
858.5	-85.7195
858.6	-85.7196
858.7	-85.7196
858.8	-85.7196
858.9	-85.7196
859	-85.7197
859.1	-85.7197
859.2	-85.7197
859.3	-85.7197
859.4	-85.7198
859.5	-85.7198
859.6	-85.7198
859.7	-85.7199
859.8	-85.7199
859.9	-85.7199
860	-85.7199
860.1	-85.72
860.2	-85.72
860.3	-85.72
860.4	-85.7201
860.5	-85.7201
860.6	-85.7201
860.7	-85.7201
860.8	-85.7202
860.9	-85.7202
861	-85.7202
861.1	-85.7202
861.2	-85.7203
861.3	-85.7203
861.4	-85.7203
861.5	-85.7204
861.6	-85.7204
861.7	-85.7204
861.8	-85.7204
861.9	-85.7205
862	-85.7205
862.1	-85.7205
862.2	-85.7205
862.3	-85.7206
862.4	-85.7206
862.5	-85.7206
862.6	-85.7207
862.7	-85.7207
862.8	-85.7207
862.9	-85.7207
863	-85.7208
863.1	-85.7208
863.2	-85.7208
863.3	-85.7209
863.4	-85.7209
863.5	-85.7209
863.6	-85.7209
863.7	-85.721
863.8	-85.721
863.9	-85.721
864	-85.721
864.1	-85.7211
864.2	-85.7211
864.3	-85.7211
864.4	-85.7212
864.5	-85.7212
864.6	-85.7212
864.7	-85.7212
864.8	-85.7213
864.9	-85.7213
865	-85.7213
865.1	-85.7213
865.2	-85.7214
865.3	-85.7214
865.4	-85.7214
865.5	-85.7214
865.6	-85.7215
865.7	-85.7215
865.8	-85.7215
865.9	-85.7216
866	-85.7216
866.1	-85.7216
866.2	-85.7216
866.3	-85.7217
866.4	-85.7217
866.5	-85.7217
866.6	-85.7217
866.7	-85.7218
866.8	-85.7218
866.9	-85.7218
867	-85.7219
867.1	-85.7219
867.2	-85.7219
867.3	-85.7219
867.4	-85.722
867.5	-85.722
867.6	-85.722
867.7	-85.722
867.8	-85.7221
867.9	-85.7221
868	-85.7221
868.1	-85.7221
868.2	-85.7222
868.3	-85.7222
868.4	-85.7222
868.5	-85.7223
868.6	-85.7223
868.7	-85.7223
868.8	-85.7223
868.9	-85.7224
869	-85.7224
869.1	-85.7224
869.2	-85.7224
869.3	-85.7225
869.4	-85.7225
869.5	-85.7225
869.6	-85.7226
869.7	-85.7226
869.8	-85.7226
869.9	-85.7226
870	-85.7227
870.1	-85.7227
870.2	-85.7227
870.3	-85.7227
870.4	-85.7228
870.5	-85.7228
870.6	-85.7228
870.7	-85.7228
870.8	-85.7229
870.9	-85.7229
871	-85.7229
871.1	-85.7229
871.2	-85.723
871.3	-85.723
871.4	-85.723
871.5	-85.7231
871.6	-85.7231
871.7	-85.7231
871.8	-85.7231
871.9	-85.7232
872	-85.7232
872.1	-85.7232
872.2	-85.7232
872.3	-85.7233
872.4	-85.7233
872.5	-85.7233
872.6	-85.7233
872.7	-85.7234
872.8	-85.7234
872.9	-85.7234
873	-85.7234
873.1	-85.7235
873.2	-85.7235
873.3	-85.7235
873.4	-85.7236
873.5	-85.7236
873.6	-85.7236
873.7	-85.7236
873.8	-85.7237
873.9	-85.7237
874	-85.7237
874.1	-85.7237
874.2	-85.7238
874.3	-85.7238
874.4	-85.7238
874.5	-85.7238
874.6	-85.7239
874.7	-85.7239
874.8	-85.7239
874.9	-85.7239
875	-85.724
875.1	-85.724
875.2	-85.724
875.3	-85.724
875.4	-85.7241
875.5	-85.7241
875.6	-85.7241
875.7	-85.7242
875.8	-85.7242
875.9	-85.7242
876	-85.7242
876.1	-85.7243
876.2	-85.7243
876.3	-85.7243
876.4	-85.7243
876.5	-85.7244
876.6	-85.7244
876.7	-85.7244
876.8	-85.7244
876.9	-85.7245
877	-85.7245
877.1	-85.7245
877.2	-85.7245
877.3	-85.7246
877.4	-85.7246
877.5	-85.7246
877.6	-85.7246
877.7	-85.7247
877.8	-85.7247
877.9	-85.7247
878	-85.7247
878.1	-85.7248
878.2	-85.7248
878.3	-85.7248
878.4	-85.7248
878.5	-85.7249
878.6	-85.7249
878.7	-85.7249
878.8	-85.725
878.9	-85.725
879	-85.725
879.1	-85.725
879.2	-85.7251
879.3	-85.7251
879.4	-85.7251
879.5	-85.7251
879.6	-85.7252
879.7	-85.7252
879.8	-85.7252
879.9	-85.7252
880	-85.7253
880.1	-85.7253
880.2	-85.7253
880.3	-85.7253
880.4	-85.7254
880.5	-85.7254
880.6	-85.7254
880.7	-85.7254
880.8	-85.7255
880.9	-85.7255
881	-85.7255
881.1	-85.7255
881.2	-85.7256
881.3	-85.7256
881.4	-85.7256
881.5	-85.7256
881.6	-85.7257
881.7	-85.7257
881.8	-85.7257
881.9	-85.7257
882	-85.7258
882.1	-85.7258
882.2	-85.7258
882.3	-85.7258
882.4	-85.7259
882.5	-85.7259
882.6	-85.7259
882.7	-85.7259
882.8	-85.726
882.9	-85.726
883	-85.726
883.1	-85.726
883.2	-85.7261
883.3	-85.7261
883.4	-85.7261
883.5	-85.7261
883.6	-85.7262
883.7	-85.7262
883.8	-85.7262
883.9	-85.7262
884	-85.7263
884.1	-85.7263
884.2	-85.7263
884.3	-85.7263
884.4	-85.7264
884.5	-85.7264
884.6	-85.7264
884.7	-85.7264
884.8	-85.7265
884.9	-85.7265
885	-85.7265
885.1	-85.7265
885.2	-85.7266
885.3	-85.7266
885.4	-85.7266
885.5	-85.7266
885.6	-85.7267
885.7	-85.7267
885.8	-85.7267
885.9	-85.7267
886	-85.7268
886.1	-85.7268
886.2	-85.7268
886.3	-85.7268
886.4	-85.7269
886.5	-85.7269
886.6	-85.7269
886.7	-85.7269
886.8	-85.727
886.9	-85.727
887	-85.727
887.1	-85.727
887.2	-85.7271
887.3	-85.7271
887.4	-85.7271
887.5	-85.7271
887.6	-85.7272
887.7	-85.7272
887.8	-85.7272
887.9	-85.7272
888	-85.7273
888.1	-85.7273
888.2	-85.7273
888.3	-85.7273
888.4	-85.7274
888.5	-85.7274
888.6	-85.7274
888.7	-85.7274
888.8	-85.7275
888.9	-85.7275
889	-85.7275
889.1	-85.7275
889.2	-85.7276
889.3	-85.7276
889.4	-85.7276
889.5	-85.7276
889.6	-85.7277
889.7	-85.7277
889.8	-85.7277
889.9	-85.7277
890	-85.7278
890.1	-85.7278
890.2	-85.7278
890.3	-85.7278
890.4	-85.7278
890.5	-85.7279
890.6	-85.7279
890.7	-85.7279
890.8	-85.7279
890.9	-85.728
891	-85.728
891.1	-85.728
891.2	-85.728
891.3	-85.7281
891.4	-85.7281
891.5	-85.7281
891.6	-85.7281
891.7	-85.7282
891.8	-85.7282
891.9	-85.7282
892	-85.7282
892.1	-85.7283
892.2	-85.7283
892.3	-85.7283
892.4	-85.7283
892.5	-85.7284
892.6	-85.7284
892.7	-85.7284
892.8	-85.7284
892.9	-85.7285
893	-85.7285
893.1	-85.7285
893.2	-85.7285
893.3	-85.7286
893.4	-85.7286
893.5	-85.7286
893.6	-85.7286
893.7	-85.7286
893.8	-85.7287
893.9	-85.7287
894	-85.7287
894.1	-85.7287
894.2	-85.7288
894.3	-85.7288
894.4	-85.7288
894.5	-85.7288
894.6	-85.7289
894.7	-85.7289
894.8	-85.7289
894.9	-85.7289
895	-85.729
895.1	-85.729
895.2	-85.729
895.3	-85.729
895.4	-85.7291
895.5	-85.7291
895.6	-85.7291
895.7	-85.7291
895.8	-85.7292
895.9	-85.7292
896	-85.7292
896.1	-85.7292
896.2	-85.7292
896.3	-85.7293
896.4	-85.7293
896.5	-85.7293
896.6	-85.7293
896.7	-85.7294
896.8	-85.7294
896.9	-85.7294
897	-85.7294
897.1	-85.7295
897.2	-85.7295
897.3	-85.7295
897.4	-85.7295
897.5	-85.7296
897.6	-85.7296
897.7	-85.7296
897.8	-85.7296
897.9	-85.7296
898	-85.7297
898.1	-85.7297
898.2	-85.7297
898.3	-85.7297
898.4	-85.7298
898.5	-85.7298
898.6	-85.7298
898.7	-85.7298
898.8	-85.7299
898.9	-85.7299
899	-85.7299
899.1	-85.7299
899.2	-85.73
899.3	-85.73
899.4	-85.73
899.5	-85.73
899.6	-85.73
899.7	-85.7301
899.8	-85.7301
899.9	-85.7301
900	-85.7301
900.1	-85.7302
900.2	-85.7302
900.3	-85.7302
900.4	-85.7302
900.5	-85.7303
900.6	-85.7303
900.7	-85.7303
900.8	-85.7303
900.9	-85.7304
901	-85.7304
901.1	-85.7304
901.2	-85.7304
901.3	-85.7304
901.4	-85.7305
901.5	-85.7305
901.6	-85.7305
901.7	-85.7305
901.8	-85.7306
901.9	-85.7306
902	-85.7306
902.1	-85.7306
902.2	-85.7307
902.3	-85.7307
902.4	-85.7307
902.5	-85.7307
902.6	-85.7307
902.7	-85.7308
902.8	-85.7308
902.9	-85.7308
903	-85.7308
903.1	-85.7309
903.2	-85.7309
903.3	-85.7309
903.4	-85.7309
903.5	-85.731
903.6	-85.731
903.7	-85.731
903.8	-85.731
903.9	-85.731
904	-85.7311
904.1	-85.7311
904.2	-85.7311
904.3	-85.7311
904.4	-85.7312
904.5	-85.7312
904.6	-85.7312
904.7	-85.7312
904.8	-85.7313
904.9	-85.7313
905	-85.7313
905.1	-85.7313
905.2	-85.7313
905.3	-85.7314
905.4	-85.7314
905.5	-85.7314
905.6	-85.7314
905.7	-85.7315
905.8	-85.7315
905.9	-85.7315
906	-85.7315
906.1	-85.7316
906.2	-85.7316
906.3	-85.7316
906.4	-85.7316
906.5	-85.7316
906.6	-85.7317
906.7	-85.7317
906.8	-85.7317
906.9	-85.7317
907	-85.7318
907.1	-85.7318
907.2	-85.7318
907.3	-85.7318
907.4	-85.7318
907.5	-85.7319
907.6	-85.7319
907.7	-85.7319
907.8	-85.7319
907.9	-85.732
908	-85.732
908.1	-85.732
908.2	-85.732
908.3	-85.7321
908.4	-85.7321
908.5	-85.7321
908.6	-85.7321
908.7	-85.7321
908.8	-85.7322
908.9	-85.7322
909	-85.7322
909.1	-85.7322
909.2	-85.7323
909.3	-85.7323
909.4	-85.7323
909.5	-85.7323
909.6	-85.7323
909.7	-85.7324
909.8	-85.7324
909.9	-85.7324
910	-85.7324
910.1	-85.7325
910.2	-85.7325
910.3	-85.7325
910.4	-85.7325
910.5	-85.7325
910.6	-85.7326
910.7	-85.7326
910.8	-85.7326
910.9	-85.7326
911	-85.7327
911.1	-85.7327
911.2	-85.7327
911.3	-85.7327
911.4	-85.7327
911.5	-85.7328
911.6	-85.7328
911.7	-85.7328
911.8	-85.7328
911.9	-85.7329
912	-85.7329
912.1	-85.7329
912.2	-85.7329
912.3	-85.7329
912.4	-85.733
912.5	-85.733
912.6	-85.733
912.7	-85.733
912.8	-85.7331
912.9	-85.7331
913	-85.7331
913.1	-85.7331
913.2	-85.7331
913.3	-85.7332
913.4	-85.7332
913.5	-85.7332
913.6	-85.7332
913.7	-85.7333
913.8	-85.7333
913.9	-85.7333
914	-85.7333
914.1	-85.7333
914.2	-85.7334
914.3	-85.7334
914.4	-85.7334
914.5	-85.7334
914.6	-85.7335
914.7	-85.7335
914.8	-85.7335
914.9	-85.7335
915	-85.7335
915.1	-85.7336
915.2	-85.7336
915.3	-85.7336
915.4	-85.7336
915.5	-85.7337
915.6	-85.7337
915.7	-85.7337
915.8	-85.7337
915.9	-85.7337
916	-85.7338
916.1	-85.7338
916.2	-85.7338
916.3	-85.7338
916.4	-85.7339
916.5	-85.7339
916.6	-85.7339
916.7	-85.7339
916.8	-85.7339
916.9	-85.734
917	-85.734
917.1	-85.734
917.2	-85.734
917.3	-85.734
917.4	-85.7341
917.5	-85.7341
917.6	-85.7341
917.7	-85.7341
917.8	-85.7342
917.9	-85.7342
918	-85.7342
918.1	-85.7342
918.2	-85.7342
918.3	-85.7343
918.4	-85.7343
918.5	-85.7343
918.6	-85.7343
918.7	-85.7344
918.8	-85.7344
918.9	-85.7344
919	-85.7344
919.1	-85.7344
919.2	-85.7345
919.3	-85.7345
919.4	-85.7345
919.5	-85.7345
919.6	-85.7345
919.7	-85.7346
919.8	-85.7346
919.9	-85.7346
920	-85.7346
920.1	-85.7347
920.2	-85.7347
920.3	-85.7347
920.4	-85.7347
920.5	-85.7347
920.6	-85.7348
920.7	-85.7348
920.8	-85.7348
920.9	-85.7348
921	-85.7348
921.1	-85.7349
921.2	-85.7349
921.3	-85.7349
921.4	-85.7349
921.5	-85.735
921.6	-85.735
921.7	-85.735
921.8	-85.735
921.9	-85.735
922	-85.7351
922.1	-85.7351
922.2	-85.7351
922.3	-85.7351
922.4	-85.7351
922.5	-85.7352
922.6	-85.7352
922.7	-85.7352
922.8	-85.7352
922.9	-85.7353
923	-85.7353
923.1	-85.7353
923.2	-85.7353
923.3	-85.7353
923.4	-85.7354
923.5	-85.7354
923.6	-85.7354
923.7	-85.7354
923.8	-85.7354
923.9	-85.7355
924	-85.7355
924.1	-85.7355
924.2	-85.7355
924.3	-85.7355
924.4	-85.7356
924.5	-85.7356
924.6	-85.7356
924.7	-85.7356
924.8	-85.7357
924.9	-85.7357
925	-85.7357
925.1	-85.7357
925.2	-85.7357
925.3	-85.7358
925.4	-85.7358
925.5	-85.7358
925.6	-85.7358
925.7	-85.7358
925.8	-85.7359
925.9	-85.7359
926	-85.7359
926.1	-85.7359
926.2	-85.7359
926.3	-85.736
926.4	-85.736
926.5	-85.736
926.6	-85.736
926.7	-85.7361
926.8	-85.7361
926.9	-85.7361
927	-85.7361
927.1	-85.7361
927.2	-85.7362
927.3	-85.7362
927.4	-85.7362
927.5	-85.7362
927.6	-85.7362
927.7	-85.7363
927.8	-85.7363
927.9	-85.7363
928	-85.7363
928.1	-85.7363
928.2	-85.7364
928.3	-85.7364
928.4	-85.7364
928.5	-85.7364
928.6	-85.7364
928.7	-85.7365
928.8	-85.7365
928.9	-85.7365
929	-85.7365
929.1	-85.7366
929.2	-85.7366
929.3	-85.7366
929.4	-85.7366
929.5	-85.7366
929.6	-85.7367
929.7	-85.7367
929.8	-85.7367
929.9	-85.7367
930	-85.7367
930.1	-85.7368
930.2	-85.7368
930.3	-85.7368
930.4	-85.7368
930.5	-85.7368
930.6	-85.7369
930.7	-85.7369
930.8	-85.7369
930.9	-85.7369
931	-85.7369
931.1	-85.737
931.2	-85.737
931.3	-85.737
931.4	-85.737
931.5	-85.737
931.6	-85.7371
931.7	-85.7371
931.8	-85.7371
931.9	-85.7371
932	-85.7371
932.1	-85.7372
932.2	-85.7372
932.3	-85.7372
932.4	-85.7372
932.5	-85.7372
932.6	-85.7373
932.7	-85.7373
932.8	-85.7373
932.9	-85.7373
933	-85.7374
933.1	-85.7374
933.2	-85.7374
933.3	-85.7374
933.4	-85.7374
933.5	-85.7375
933.6	-85.7375
933.7	-85.7375
933.8	-85.7375
933.9	-85.7375
934	-85.7376
934.1	-85.7376
934.2	-85.7376
934.3	-85.7376
934.4	-85.7376
934.5	-85.7377
934.6	-85.7377
934.7	-85.7377
934.8	-85.7377
934.9	-85.7377
935	-85.7378
935.1	-85.7378
935.2	-85.7378
935.3	-85.7378
935.4	-85.7378
935.5	-85.7379
935.6	-85.7379
935.7	-85.7379
935.8	-85.7379
935.9	-85.7379
936	-85.738
936.1	-85.738
936.2	-85.738
936.3	-85.738
936.4	-85.738
936.5	-85.7381
936.6	-85.7381
936.7	-85.7381
936.8	-85.7381
936.9	-85.7381
937	-85.7382
937.1	-85.7382
937.2	-85.7382
937.3	-85.7382
937.4	-85.7382
937.5	-85.7383
937.6	-85.7383
937.7	-85.7383
937.8	-85.7383
937.9	-85.7383
938	-85.7384
938.1	-85.7384
938.2	-85.7384
938.3	-85.7384
938.4	-85.7384
938.5	-85.7385
938.6	-85.7385
938.7	-85.7385
938.8	-85.7385
938.9	-85.7385
939	-85.7386
939.1	-85.7386
939.2	-85.7386
939.3	-85.7386
939.4	-85.7386
939.5	-85.7387
939.6	-85.7387
939.7	-85.7387
939.8	-85.7387
939.9	-85.7387
940	-85.7388
940.1	-85.7388
940.2	-85.7388
940.3	-85.7388
940.4	-85.7388
940.5	-85.7389
940.6	-85.7389
940.7	-85.7389
940.8	-85.7389
940.9	-85.7389
941	-85.739
941.1	-85.739
941.2	-85.739
941.3	-85.739
941.4	-85.739
941.5	-85.739
941.6	-85.7391
941.7	-85.7391
941.8	-85.7391
941.9	-85.7391
942	-85.7391
942.1	-85.7392
942.2	-85.7392
942.3	-85.7392
942.4	-85.7392
942.5	-85.7392
942.6	-85.7393
942.7	-85.7393
942.8	-85.7393
942.9	-85.7393
943	-85.7393
943.1	-85.7394
943.2	-85.7394
943.3	-85.7394
943.4	-85.7394
943.5	-85.7394
943.6	-85.7395
943.7	-85.7395
943.8	-85.7395
943.9	-85.7395
944	-85.7395
944.1	-85.7396
944.2	-85.7396
944.3	-85.7396
944.4	-85.7396
944.5	-85.7396
944.6	-85.7397
944.7	-85.7397
944.8	-85.7397
944.9	-85.7397
945	-85.7397
945.1	-85.7398
945.2	-85.7398
945.3	-85.7398
945.4	-85.7398
945.5	-85.7398
945.6	-85.7398
945.7	-85.7399
945.8	-85.7399
945.9	-85.7399
946	-85.7399
946.1	-85.7399
946.2	-85.74
946.3	-85.74
946.4	-85.74
946.5	-85.74
946.6	-85.74
946.7	-85.7401
946.8	-85.7401
946.9	-85.7401
947	-85.7401
947.1	-85.7401
947.2	-85.7402
947.3	-85.7402
947.4	-85.7402
947.5	-85.7402
947.6	-85.7402
947.7	-85.7403
947.8	-85.7403
947.9	-85.7403
948	-85.7403
948.1	-85.7403
948.2	-85.7403
948.3	-85.7404
948.4	-85.7404
948.5	-85.7404
948.6	-85.7404
948.7	-85.7404
948.8	-85.7405
948.9	-85.7405
949	-85.7405
949.1	-85.7405
949.2	-85.7405
949.3	-85.7406
949.4	-85.7406
949.5	-85.7406
949.6	-85.7406
949.7	-85.7406
949.8	-85.7407
949.9	-85.7407
950	-85.7407
950.1	-85.7407
950.2	-85.7407
950.3	-85.7407
950.4	-85.7408
950.5	-85.7408
950.6	-85.7408
950.7	-85.7408
950.8	-85.7408
950.9	-85.7409
951	-85.7409
951.1	-85.7409
951.2	-85.7409
951.3	-85.7409
951.4	-85.741
951.5	-85.741
951.6	-85.741
951.7	-85.741
951.8	-85.741
951.9	-85.741
952	-85.7411
952.1	-85.7411
952.2	-85.7411
952.3	-85.7411
952.4	-85.7411
952.5	-85.7412
952.6	-85.7412
952.7	-85.7412
952.8	-85.7412
952.9	-85.7412
953	-85.7413
953.1	-85.7413
953.2	-85.7413
953.3	-85.7413
953.4	-85.7413
953.5	-85.7413
953.6	-85.7414
953.7	-85.7414
953.8	-85.7414
953.9	-85.7414
954	-85.7414
954.1	-85.7415
954.2	-85.7415
954.3	-85.7415
954.4	-85.7415
954.5	-85.7415
954.6	-85.7416
954.7	-85.7416
954.8	-85.7416
954.9	-85.7416
955	-85.7416
955.1	-85.7416
955.2	-85.7417
955.3	-85.7417
955.4	-85.7417
955.5	-85.7417
955.6	-85.7417
955.7	-85.7418
955.8	-85.7418
955.9	-85.7418
956	-85.7418
956.1	-85.7418
956.2	-85.7418
956.3	-85.7419
956.4	-85.7419
956.5	-85.7419
956.6	-85.7419
956.7	-85.7419
956.8	-85.742
956.9	-85.742
957	-85.742
957.1	-85.742
957.2	-85.742
957.3	-85.7421
957.4	-85.7421
957.5	-85.7421
957.6	-85.7421
957.7	-85.7421
957.8	-85.7421
957.9	-85.7422
958	-85.7422
958.1	-85.7422
958.2	-85.7422
958.3	-85.7422
958.4	-85.7423
958.5	-85.7423
958.6	-85.7423
958.7	-85.7423
958.8	-85.7423
958.9	-85.7423
959	-85.7424
959.1	-85.7424
959.2	-85.7424
959.3	-85.7424
959.4	-85.7424
959.5	-85.7425
959.6	-85.7425
959.7	-85.7425
959.8	-85.7425
959.9	-85.7425
960	-85.7425
960.1	-85.7426
960.2	-85.7426
960.3	-85.7426
960.4	-85.7426
960.5	-85.7426
960.6	-85.7427
960.7	-85.7427
960.8	-85.7427
960.9	-85.7427
961	-85.7427
961.1	-85.7427
961.2	-85.7428
961.3	-85.7428
961.4	-85.7428
961.5	-85.7428
961.6	-85.7428
961.7	-85.7429
961.8	-85.7429
961.9	-85.7429
962	-85.7429
962.1	-85.7429
962.2	-85.7429
962.3	-85.743
962.4	-85.743
962.5	-85.743
962.6	-85.743
962.7	-85.743
962.8	-85.743
962.9	-85.7431
963	-85.7431
963.1	-85.7431
963.2	-85.7431
963.3	-85.7431
963.4	-85.7432
963.5	-85.7432
963.6	-85.7432
963.7	-85.7432
963.8	-85.7432
963.9	-85.7432
964	-85.7433
964.1	-85.7433
964.2	-85.7433
964.3	-85.7433
964.4	-85.7433
964.5	-85.7434
964.6	-85.7434
964.7	-85.7434
964.8	-85.7434
964.9	-85.7434
965	-85.7434
965.1	-85.7435
965.2	-85.7435
965.3	-85.7435
965.4	-85.7435
965.5	-85.7435
965.6	-85.7435
965.7	-85.7436
965.8	-85.7436
965.9	-85.7436
966	-85.7436
966.1	-85.7436
966.2	-85.7437
966.3	-85.7437
966.4	-85.7437
966.5	-85.7437
966.6	-85.7437
966.7	-85.7437
966.8	-85.7438
966.9	-85.7438
967	-85.7438
967.1	-85.7438
967.2	-85.7438
967.3	-85.7438
967.4	-85.7439
967.5	-85.7439
967.6	-85.7439
967.7	-85.7439
967.8	-85.7439
967.9	-85.744
968	-85.744
968.1	-85.744
968.2	-85.744
968.3	-85.744
968.4	-85.744
968.5	-85.7441
968.6	-85.7441
968.7	-85.7441
968.8	-85.7441
968.9	-85.7441
969	-85.7441
969.1	-85.7442
969.2	-85.7442
969.3	-85.7442
969.4	-85.7442
969.5	-85.7442
969.6	-85.7443
969.7	-85.7443
969.8	-85.7443
969.9	-85.7443
970	-85.7443
970.1	-85.7443
970.2	-85.7444
970.3	-85.7444
970.4	-85.7444
970.5	-85.7444
970.6	-85.7444
970.7	-85.7444
970.8	-85.7445
970.9	-85.7445
971	-85.7445
971.1	-85.7445
971.2	-85.7445
971.3	-85.7445
971.4	-85.7446
971.5	-85.7446
971.6	-85.7446
971.7	-85.7446
971.8	-85.7446
971.9	-85.7447
972	-85.7447
972.1	-85.7447
972.2	-85.7447
972.3	-85.7447
972.4	-85.7447
972.5	-85.7448
972.6	-85.7448
972.7	-85.7448
972.8	-85.7448
972.9	-85.7448
973	-85.7448
973.1	-85.7449
973.2	-85.7449
973.3	-85.7449
973.4	-85.7449
973.5	-85.7449
973.6	-85.7449
973.7	-85.745
973.8	-85.745
973.9	-85.745
974	-85.745
974.1	-85.745
974.2	-85.745
974.3	-85.7451
974.4	-85.7451
974.5	-85.7451
974.6	-85.7451
974.7	-85.7451
974.8	-85.7451
974.9	-85.7452
975	-85.7452
975.1	-85.7452
975.2	-85.7452
975.3	-85.7452
975.4	-85.7453
975.5	-85.7453
975.6	-85.7453
975.7	-85.7453
975.8	-85.7453
975.9	-85.7453
976	-85.7454
976.1	-85.7454
976.2	-85.7454
976.3	-85.7454
976.4	-85.7454
976.5	-85.7454
976.6	-85.7455
976.7	-85.7455
976.8	-85.7455
976.9	-85.7455
977	-85.7455
977.1	-85.7455
977.2	-85.7456
977.3	-85.7456
977.4	-85.7456
977.5	-85.7456
977.6	-85.7456
977.7	-85.7456
977.8	-85.7457
977.9	-85.7457
978	-85.7457
978.1	-85.7457
978.2	-85.7457
978.3	-85.7457
978.4	-85.7458
978.5	-85.7458
978.6	-85.7458
978.7	-85.7458
978.8	-85.7458
978.9	-85.7458
979	-85.7459
979.1	-85.7459
979.2	-85.7459
979.3	-85.7459
979.4	-85.7459
979.5	-85.7459
979.6	-85.746
979.7	-85.746
979.8	-85.746
979.9	-85.746
980	-85.746
980.1	-85.746
980.2	-85.7461
980.3	-85.7461
980.4	-85.7461
980.5	-85.7461
980.6	-85.7461
980.7	-85.7461
980.8	-85.7462
980.9	-85.7462
981	-85.7462
981.1	-85.7462
981.2	-85.7462
981.3	-85.7462
981.4	-85.7463
981.5	-85.7463
981.6	-85.7463
981.7	-85.7463
981.8	-85.7463
981.9	-85.7463
982	-85.7464
982.1	-85.7464
982.2	-85.7464
982.3	-85.7464
982.4	-85.7464
982.5	-85.7464
982.6	-85.7465
982.7	-85.7465
982.8	-85.7465
982.9	-85.7465
983	-85.7465
983.1	-85.7465
983.2	-85.7466
983.3	-85.7466
983.4	-85.7466
983.5	-85.7466
983.6	-85.7466
983.7	-85.7466
983.8	-85.7467
983.9	-85.7467
984	-85.7467
984.1	-85.7467
984.2	-85.7467
984.3	-85.7467
984.4	-85.7468
984.5	-85.7468
984.6	-85.7468
984.7	-85.7468
984.8	-85.7468
984.9	-85.7468
985	-85.7469
985.1	-85.7469
985.2	-85.7469
985.3	-85.7469
985.4	-85.7469
985.5	-85.7469
985.6	-85.7469
985.7	-85.747
985.8	-85.747
985.9	-85.747
986	-85.747
986.1	-85.747
986.2	-85.747
986.3	-85.7471
986.4	-85.7471
986.5	-85.7471
986.6	-85.7471
986.7	-85.7471
986.8	-85.7471
986.9	-85.7472
987	-85.7472
987.1	-85.7472
987.2	-85.7472
987.3	-85.7472
987.4	-85.7472
987.5	-85.7473
987.6	-85.7473
987.7	-85.7473
987.8	-85.7473
987.9	-85.7473
988	-85.7473
988.1	-85.7474
988.2	-85.7474
988.3	-85.7474
988.4	-85.7474
988.5	-85.7474
988.6	-85.7474
988.7	-85.7474
988.8	-85.7475
988.9	-85.7475
989	-85.7475
989.1	-85.7475
989.2	-85.7475
989.3	-85.7475
989.4	-85.7476
989.5	-85.7476
989.6	-85.7476
989.7	-85.7476
989.8	-85.7476
989.9	-85.7476
990	-85.7477
990.1	-85.7477
990.2	-85.7477
990.3	-85.7477
990.4	-85.7477
990.5	-85.7477
990.6	-85.7478
990.7	-85.7478
990.8	-85.7478
990.9	-85.7478
991	-85.7478
991.1	-85.7478
991.2	-85.7478
991.3	-85.7479
991.4	-85.7479
991.5	-85.7479
991.6	-85.7479
991.7	-85.7479
991.8	-85.7479
991.9	-85.748
992	-85.748
992.1	-85.748
992.2	-85.748
992.3	-85.748
992.4	-85.748
992.5	-85.7481
992.6	-85.7481
992.7	-85.7481
992.8	-85.7481
992.9	-85.7481
993	-85.7481
993.1	-85.7482
993.2	-85.7482
993.3	-85.7482
993.4	-85.7482
993.5	-85.7482
993.6	-85.7482
993.7	-85.7482
993.8	-85.7483
993.9	-85.7483
994	-85.7483
994.1	-85.7483
994.2	-85.7483
994.3	-85.7483
994.4	-85.7484
994.5	-85.7484
994.6	-85.7484
994.7	-85.7484
994.8	-85.7484
994.9	-85.7484
995	-85.7484
995.1	-85.7485
995.2	-85.7485
995.3	-85.7485
995.4	-85.7485
995.5	-85.7485
995.6	-85.7485
995.7	-85.7486
995.8	-85.7486
995.9	-85.7486
996	-85.7486
996.1	-85.7486
996.2	-85.7486
996.3	-85.7487
996.4	-85.7487
996.5	-85.7487
996.6	-85.7487
996.7	-85.7487
996.8	-85.7487
996.9	-85.7487
997	-85.7488
997.1	-85.7488
997.2	-85.7488
997.3	-85.7488
997.4	-85.7488
997.5	-85.7488
997.6	-85.7489
997.7	-85.7489
997.8	-85.7489
997.9	-85.7489
998	-85.7489
998.1	-85.7489
998.2	-85.7489
998.3	-85.749
998.4	-85.749
998.5	-85.749
998.6	-85.749
998.7	-85.749
998.8	-85.749
998.9	-85.7491
999	-85.7491
999.1	-85.7491
999.2	-85.7491
999.3	-85.7491
999.4	-85.7491
999.5	-85.7491
999.6	-85.7492
999.7	-85.7492
999.8	-85.7492
999.9	-85.7492
1000	-85.7492
