Time(ms)	Membrane_Voltage(mV)
-5	-85.75
-4.9	-85.75
-4.8	-85.7501
-4.7	-85.7501
-4.6	-85.7501
-4.5	-85.7501
-4.4	-85.7501
-4.3	-85.7501
-4.2	-85.7502
-4.1	-85.7502
-4	-85.7502
-3.9	-85.7502
-3.8	-85.7502
-3.7	-85.7502
-3.6	-85.7503
-3.5	-85.7503
-3.4	-85.7503
-3.3	-85.7503
-3.2	-85.7503
-3.1	-85.7503
-3	-85.7504
-2.9	-85.7504
-2.8	-85.7504
-2.7	-85.7504
-2.6	-85.7504
-2.5	-85.7504
-2.4	-85.7505
-2.3	-85.7505
-2.2	-85.7505
-2.1	-85.7505
-2	-85.7505
-1.9	-85.7505
-1.8	-85.7506
-1.7	-85.7506
-1.6	-85.7506
-1.5	-85.7506
-1.4	-85.7506
-1.3	-85.7506
-1.2	-85.7507
-1.1	-85.7507
-1	-85.7507
-0.9	-85.7507
-0.8	-85.7507
-0.7	-85.7507
-0.6	-85.7508
-0.5	-85.7508
-0.4	-85.7508
-0.3	-85.7508
-0.2	-85.7508
-0.1	-85.7508
0	-85.7508
0.1	-84.2717
0.2	-82.8303
0.3	-81.4211
0.4	-80.0397
0.5	-78.6818
0.6	-77.3435
0.7	-76.0215
0.8	-74.7125
0.9	-73.4136
1	-72.1221
1.1	-70.8358
1.2	-69.5524
1.3	-68.2699
1.4	-66.9863
1.5	-65.6998
1.6	-64.4084
1.7	-63.1097
1.8	-61.8004
1.9	-60.4761
2	-59.13
2.1	-57.751
2.2	-56.3214
2.3	-54.8116
2.4	-53.1707
2.5	-51.3067
2.6	-49.0419
2.7	-45.9968
2.8	-41.2583
2.9	-32.5249
3	-15.8178
3.1	3.32304
3.2	14.8127
3.3	19.4163
3.4	20.71
3.5	20.5402
3.6	19.7394
3.7	18.6885
3.8	17.5665
3.9	16.459
4	15.4065
4.1	14.4256
4.2	13.5198
4.3	12.6852
4.4	11.9142
4.5	11.1974
4.6	10.5256
4.7	9.89059
4.8	9.28511
4.9	8.70341
5	8.14101
5.1	7.59459
5.2	7.06174
5.3	6.54084
5.4	6.03084
5.5	5.53116
5.6	5.04151
5.7	4.56183
5.8	4.09219
5.9	3.63274
6	3.18369
6.1	2.74521
6.2	2.31747
6.3	1.90061
6.4	1.49473
6.5	1.09985
6.6	0.715974
6.7	0.343046
6.8	-0.0190336
6.9	-0.370404
7	-0.711237
7.1	-1.04174
7.2	-1.36212
7.3	-1.67265
7.4	-1.97356
7.5	-2.26513
7.6	-2.54764
7.7	-2.82137
7.8	-3.08659
7.9	-3.34359
8	-3.59265
8.1	-3.83404
8.2	-4.06804
8.3	-4.29491
8.4	-4.5149
8.5	-4.72828
8.6	-4.93528
8.7	-5.13614
8.8	-5.33109
8.9	-5.52035
9	-5.70414
9.1	-5.88266
9.2	-6.05611
9.3	-6.22468
9.4	-6.38855
9.5	-6.54791
9.6	-6.70292
9.7	-6.85374
9.8	-7.00053
9.9	-7.14343
10	-7.2826
10.1	-7.41817
10.2	-7.55028
10.3	-7.67904
10.4	-7.80458
10.5	-7.92703
10.6	-8.04648
10.7	-8.16305
10.8	-8.27683
10.9	-8.38794
11	-8.49646
11.1	-8.60248
11.2	-8.7061
11.3	-8.80739
11.4	-8.90643
11.5	-9.0033
11.6	-9.09808
11.7	-9.19083
11.8	-9.28163
11.9	-9.37053
12	-9.45761
12.1	-9.54291
12.2	-9.62651
12.3	-9.70845
12.4	-9.78878
12.5	-9.86757
12.6	-9.94485
12.7	-10.0207
12.8	-10.0951
12.9	-10.1681
13	-10.2399
13.1	-10.3103
13.2	-10.3795
13.3	-10.4475
13.4	-10.5143
13.5	-10.58
13.6	-10.6446
13.7	-10.7081
13.8	-10.7706
13.9	-10.832
14	-10.8925
14.1	-10.952
14.2	-11.0106
14.3	-11.0682
14.4	-11.1251
14.5	-11.181
14.6	-11.2361
14.7	-11.2904
14.8	-11.3439
14.9	-11.3967
15	-11.4487
15.1	-11.4999
15.2	-11.5505
15.3	-11.6003
15.4	-11.6495
15.5	-11.698
15.6	-11.7459
15.7	-11.7931
15.8	-11.8397
15.9	-11.8858
16	-11.9312
16.1	-11.976
16.2	-12.0203
16.3	-12.0641
16.4	-12.1073
16.5	-12.15
16.6	-12.1921
16.7	-12.2338
16.8	-12.2749
16.9	-12.3156
17	-12.3558
17.1	-12.3955
17.2	-12.4348
17.3	-12.4736
17.4	-12.5119
17.5	-12.5499
17.6	-12.5874
17.7	-12.6245
17.8	-12.6611
17.9	-12.6974
18	-12.7333
18.1	-12.7687
18.2	-12.8038
18.3	-12.8385
18.4	-12.8728
18.5	-12.9068
18.6	-12.9404
18.7	-12.9736
18.8	-13.0065
18.9	-13.039
19	-13.0712
19.1	-13.103
19.2	-13.1345
19.3	-13.1656
19.4	-13.1964
19.5	-13.2269
19.6	-13.2571
19.7	-13.2869
19.8	-13.3164
19.9	-13.3457
20	-13.3745
20.1	-13.4031
20.2	-13.4314
20.3	-13.4594
20.4	-13.487
20.5	-13.5144
20.6	-13.5415
20.7	-13.5683
20.8	-13.5947
20.9	-13.6209
21	-13.6468
21.1	-13.6724
21.2	-13.6978
21.3	-13.7228
21.4	-13.7476
21.5	-13.772
21.6	-13.7962
21.7	-13.8201
21.8	-13.8437
21.9	-13.8671
22	-13.8902
22.1	-13.913
22.2	-13.9355
22.3	-13.9577
22.4	-13.9797
22.5	-14.0014
22.6	-14.0228
22.7	-14.044
22.8	-14.0649
22.9	-14.0855
23	-14.1058
23.1	-14.1259
23.2	-14.1457
23.3	-14.1652
23.4	-14.1845
23.5	-14.2035
23.6	-14.2222
23.7	-14.2407
23.8	-14.2588
23.9	-14.2768
24	-14.2944
24.1	-14.3118
24.2	-14.3289
24.3	-14.3457
24.4	-14.3623
24.5	-14.3786
24.6	-14.3947
24.7	-14.4104
24.8	-14.4259
24.9	-14.4411
25	-14.4561
25.1	-14.4708
25.2	-14.4852
25.3	-14.4993
25.4	-14.5132
25.5	-14.5268
25.6	-14.5401
25.7	-14.5532
25.8	-14.566
25.9	-14.5785
26	-14.5907
26.1	-14.6026
26.2	-14.6143
26.3	-14.6257
26.4	-14.6368
26.5	-14.6477
26.6	-14.6582
26.7	-14.6685
26.8	-14.6785
26.9	-14.6883
27	-14.6977
27.1	-14.7069
27.2	-14.7158
27.3	-14.7244
27.4	-14.7327
27.5	-14.7407
27.6	-14.7485
27.7	-14.756
27.8	-14.7631
27.9	-14.77
28	-14.7766
28.1	-14.783
28.2	-14.789
28.3	-14.7947
28.4	-14.8002
28.5	-14.8053
28.6	-14.8102
28.7	-14.8148
28.8	-14.8191
28.9	-14.8231
29	-14.8267
29.1	-14.8301
29.2	-14.8332
29.3	-14.8361
29.4	-14.8386
29.5	-14.8408
29.6	-14.8427
29.7	-14.8443
29.8	-14.8456
29.9	-14.8466
30	-14.8473
30.1	-14.8477
30.2	-14.8478
30.3	-14.8476
30.4	-14.8471
30.5	-14.8463
30.6	-14.8452
30.7	-14.8438
30.8	-14.8421
30.9	-14.84
31	-14.8377
31.1	-14.835
31.2	-14.8321
31.3	-14.8288
31.4	-14.8252
31.5	-14.8213
31.6	-14.8171
31.7	-14.8126
31.8	-14.8078
31.9	-14.8027
32	-14.7972
32.1	-14.7914
32.2	-14.7853
32.3	-14.7789
32.4	-14.7722
32.5	-14.7652
32.6	-14.7578
32.7	-14.7502
32.8	-14.7422
32.9	-14.7339
33	-14.7252
33.1	-14.7163
33.2	-14.707
33.3	-14.6974
33.4	-14.6875
33.5	-14.6772
33.6	-14.6666
33.7	-14.6557
33.8	-14.6445
33.9	-14.633
34	-14.6211
34.1	-14.6089
34.2	-14.5963
34.3	-14.5835
34.4	-14.5703
34.5	-14.5567
34.6	-14.5429
34.7	-14.5287
34.8	-14.5142
34.9	-14.4993
35	-14.4841
35.1	-14.4686
35.2	-14.4527
35.3	-14.4365
35.4	-14.4199
35.5	-14.4031
35.6	-14.3858
35.7	-14.3683
35.8	-14.3504
35.9	-14.3321
36	-14.3135
36.1	-14.2946
36.2	-14.2753
36.3	-14.2557
36.4	-14.2357
36.5	-14.2154
36.6	-14.1948
36.7	-14.1737
36.8	-14.1524
36.9	-14.1307
37	-14.1086
37.1	-14.0862
37.2	-14.0634
37.3	-14.0403
37.4	-14.0168
37.5	-13.993
37.6	-13.9688
37.7	-13.9443
37.8	-13.9194
37.9	-13.8941
38	-13.8685
38.1	-13.8426
38.2	-13.8162
38.3	-13.7895
38.4	-13.7625
38.5	-13.735
38.6	-13.7072
38.7	-13.6791
38.8	-13.6506
38.9	-13.6217
39	-13.5924
39.1	-13.5628
39.2	-13.5328
39.3	-13.5024
39.4	-13.4717
39.5	-13.4406
39.6	-13.4091
39.7	-13.3772
39.8	-13.345
39.9	-13.3124
40	-13.2794
40.1	-13.246
40.2	-13.2123
40.3	-13.1781
40.4	-13.1436
40.5	-13.1087
40.6	-13.0734
40.7	-13.0378
40.8	-13.0017
40.9	-12.9653
41	-12.9284
41.1	-12.8912
41.2	-12.8536
41.3	-12.8156
41.4	-12.7772
41.5	-12.7384
41.6	-12.6992
41.7	-12.6596
41.8	-12.6196
41.9	-12.5793
42	-12.5385
42.1	-12.4973
42.2	-12.4557
42.3	-12.4137
42.4	-12.3713
42.5	-12.3285
42.6	-12.2853
42.7	-12.2417
42.8	-12.1977
42.9	-12.1532
43	-12.1084
43.1	-12.0631
43.2	-12.0174
43.3	-11.9713
43.4	-11.9248
43.5	-11.8779
43.6	-11.8305
43.7	-11.7828
43.8	-11.7346
43.9	-11.6859
44	-11.6369
44.1	-11.5874
44.2	-11.5375
44.3	-11.4871
44.4	-11.4364
44.5	-11.3852
44.6	-11.3335
44.7	-11.2814
44.8	-11.2289
44.9	-11.1759
45	-11.1225
45.1	-11.0687
45.2	-11.0144
45.3	-10.9597
45.4	-10.9045
45.5	-10.8489
45.6	-10.7928
45.7	-10.7362
45.8	-10.6792
45.9	-10.6218
46	-10.5639
46.1	-10.5055
46.2	-10.4467
46.3	-10.3874
46.4	-10.3277
46.5	-10.2674
46.6	-10.2068
46.7	-10.1456
46.8	-10.084
46.9	-10.0219
47	-9.9593
47.1	-9.89625
47.2	-9.83272
47.3	-9.76871
47.4	-9.70422
47.5	-9.63925
47.6	-9.57379
47.7	-9.50784
47.8	-9.44141
47.9	-9.37448
48	-9.30706
48.1	-9.23915
48.2	-9.17074
48.3	-9.10183
48.4	-9.03243
48.5	-8.96252
48.6	-8.89211
48.7	-8.82119
48.8	-8.74977
48.9	-8.67784
49	-8.60539
49.1	-8.53244
49.2	-8.45897
49.3	-8.38499
49.4	-8.31049
49.5	-8.23547
49.6	-8.15992
49.7	-8.08386
49.8	-8.00727
49.9	-7.93016
50	-7.85251
50.1	-7.77434
50.2	-7.69564
50.3	-7.6164
50.4	-7.53663
50.5	-7.45633
50.6	-7.37548
50.7	-7.2941
50.8	-7.21218
50.9	-7.12971
51	-7.0467
51.1	-6.96315
51.2	-6.87905
51.3	-6.79441
51.4	-6.70921
51.5	-6.62347
51.6	-6.53717
51.7	-6.45032
51.8	-6.36292
51.9	-6.27496
52	-6.18645
52.1	-6.09738
52.2	-6.00776
52.3	-5.91757
52.4	-5.82683
52.5	-5.73553
52.6	-5.64367
52.7	-5.55124
52.8	-5.45826
52.9	-5.36471
53	-5.27061
53.1	-5.17594
53.2	-5.0807
53.3	-4.98491
53.4	-4.88856
53.5	-4.79164
53.6	-4.69416
53.7	-4.59612
53.8	-4.49752
53.9	-4.39836
54	-4.29864
54.1	-4.19836
54.2	-4.09753
54.3	-3.99614
54.4	-3.89419
54.5	-3.79169
54.6	-3.68864
54.7	-3.58504
54.8	-3.4809
54.9	-3.3762
55	-3.27097
55.1	-3.16519
55.2	-3.05887
55.3	-2.95202
55.4	-2.84464
55.5	-2.73672
55.6	-2.62829
55.7	-2.51932
55.8	-2.40984
55.9	-2.29985
56	-2.18935
56.1	-2.07834
56.2	-1.96683
56.3	-1.85482
56.4	-1.74232
56.5	-1.62934
56.6	-1.51588
56.7	-1.40194
56.8	-1.28754
56.9	-1.17268
57	-1.05736
57.1	-0.941598
57.2	-0.825395
57.3	-0.70876
57.4	-0.591701
57.5	-0.474226
57.6	-0.356343
57.7	-0.238062
57.8	-0.119391
57.9	-0.000340692
58	0.119081
58.1	0.238863
58.2	0.358995
58.3	0.479467
58.4	0.600268
58.5	0.721386
58.6	0.842811
58.7	0.964531
58.8	1.08653
58.9	1.2088
59	1.33133
59.1	1.45411
59.2	1.57711
59.3	1.70034
59.4	1.82376
59.5	1.94738
59.6	2.07117
59.7	2.19513
59.8	2.31923
59.9	2.44346
60	2.56781
60.1	2.69226
60.2	2.81679
60.3	2.94139
60.4	3.06604
60.5	3.19073
60.6	3.31544
60.7	3.44016
60.8	3.56486
60.9	3.68952
61	3.81414
61.1	3.9387
61.2	4.06317
61.3	4.18754
61.4	4.3118
61.5	4.43592
61.6	4.55989
61.7	4.68368
61.8	4.80729
61.9	4.9307
62	5.05388
62.1	5.17682
62.2	5.2995
62.3	5.42191
62.4	5.54402
62.5	5.66583
62.6	5.7873
62.7	5.90844
62.8	6.02921
62.9	6.1496
63	6.2696
63.1	6.38918
63.2	6.50834
63.3	6.62706
63.4	6.74531
63.5	6.86309
63.6	6.98038
63.7	7.09717
63.8	7.21344
63.9	7.32917
64	7.44435
64.1	7.55897
64.2	7.67301
64.3	7.78647
64.4	7.89932
64.5	8.01155
64.6	8.12316
64.7	8.23413
64.8	8.34444
64.9	8.4541
65	8.56308
65.1	8.67137
65.2	8.77898
65.3	8.88587
65.4	8.99206
65.5	9.09752
65.6	9.20225
65.7	9.30624
65.8	9.40948
65.9	9.51196
66	9.61368
66.1	9.71464
66.2	9.81481
66.3	9.9142
66.4	10.0128
66.5	10.1106
66.6	10.2076
66.7	10.3038
66.8	10.3992
66.9	10.4938
67	10.5876
67.1	10.6805
67.2	10.7726
67.3	10.8639
67.4	10.9544
67.5	11.044
67.6	11.1328
67.7	11.2208
67.8	11.3079
67.9	11.3942
68	11.4797
68.1	11.5643
68.2	11.6481
68.3	11.731
68.4	11.8131
68.5	11.8943
68.6	11.9748
68.7	12.0543
68.8	12.1331
68.9	12.211
69	12.2881
69.1	12.3643
69.2	12.4397
69.3	12.5143
69.4	12.588
69.5	12.661
69.6	12.7331
69.7	12.8043
69.8	12.8748
69.9	12.9445
70	13.0133
70.1	13.0813
70.2	13.1486
70.3	13.215
70.4	13.2806
70.5	13.3455
70.6	13.4095
70.7	13.4728
70.8	13.5352
70.9	13.5969
71	13.6578
71.1	13.718
71.2	13.7774
71.3	13.836
71.4	13.8939
71.5	13.951
71.6	14.0073
71.7	14.063
71.8	14.1178
71.9	14.172
72	14.2254
72.1	14.2781
72.2	14.33
72.3	14.3813
72.4	14.4318
72.5	14.4816
72.6	14.5308
72.7	14.5792
72.8	14.6269
72.9	14.674
73	14.7203
73.1	14.766
73.2	14.811
73.3	14.8554
73.4	14.899
73.5	14.9421
73.6	14.9844
73.7	15.0261
73.8	15.0672
73.9	15.1077
74	15.1475
74.1	15.1866
74.2	15.2252
74.3	15.2631
74.4	15.3004
74.5	15.3371
74.6	15.3732
74.7	15.4087
74.8	15.4437
74.9	15.478
75	15.5117
75.1	15.5449
75.2	15.5774
75.3	15.6094
75.4	15.6409
75.5	15.6717
75.6	15.7021
75.7	15.7318
75.8	15.761
75.9	15.7897
76	15.8178
76.1	15.8454
76.2	15.8725
76.3	15.899
76.4	15.925
76.5	15.9505
76.6	15.9755
76.7	16
76.8	16.024
76.9	16.0475
77	16.0704
77.1	16.0929
77.2	16.1149
77.3	16.1364
77.4	16.1575
77.5	16.1781
77.6	16.1981
77.7	16.2178
77.8	16.2369
77.9	16.2556
78	16.2739
78.1	16.2917
78.2	16.309
78.3	16.3259
78.4	16.3424
78.5	16.3584
78.6	16.374
78.7	16.3892
78.8	16.404
78.9	16.4183
79	16.4322
79.1	16.4457
79.2	16.4588
79.3	16.4714
79.4	16.4837
79.5	16.4956
79.6	16.5071
79.7	16.5182
79.8	16.5289
79.9	16.5392
80	16.5491
80.1	16.5586
80.2	16.5678
80.3	16.5766
80.4	16.585
80.5	16.5931
80.6	16.6008
80.7	16.6082
80.8	16.6151
80.9	16.6218
81	16.628
81.1	16.634
81.2	16.6396
81.3	16.6448
81.4	16.6497
81.5	16.6543
81.6	16.6585
81.7	16.6624
81.8	16.666
81.9	16.6693
82	16.6722
82.1	16.6748
82.2	16.6771
82.3	16.6791
82.4	16.6808
82.5	16.6821
82.6	16.6832
82.7	16.6839
82.8	16.6844
82.9	16.6845
83	16.6844
83.1	16.684
83.2	16.6833
83.3	16.6822
83.4	16.681
83.5	16.6794
83.6	16.6775
83.7	16.6754
83.8	16.673
83.9	16.6703
84	16.6673
84.1	16.6641
84.2	16.6606
84.3	16.6569
84.4	16.6529
84.5	16.6486
84.6	16.6441
84.7	16.6393
84.8	16.6342
84.9	16.6289
85	16.6234
85.1	16.6176
85.2	16.6116
85.3	16.6053
85.4	16.5988
85.5	16.592
85.6	16.5851
85.7	16.5778
85.8	16.5704
85.9	16.5627
86	16.5548
86.1	16.5466
86.2	16.5383
86.3	16.5297
86.4	16.5209
86.5	16.5119
86.6	16.5026
86.7	16.4932
86.8	16.4835
86.9	16.4736
87	16.4635
87.1	16.4532
87.2	16.4427
87.3	16.432
87.4	16.4211
87.5	16.41
87.6	16.3986
87.7	16.3871
87.8	16.3754
87.9	16.3635
88	16.3514
88.1	16.3391
88.2	16.3267
88.3	16.314
88.4	16.3011
88.5	16.2881
88.6	16.2749
88.7	16.2615
88.8	16.2479
88.9	16.2341
89	16.2202
89.1	16.2061
89.2	16.1918
89.3	16.1773
89.4	16.1627
89.5	16.1479
89.6	16.1329
89.7	16.1178
89.8	16.1025
89.9	16.087
90	16.0714
90.1	16.0556
90.2	16.0396
90.3	16.0235
90.4	16.0073
90.5	15.9908
90.6	15.9742
90.7	15.9575
90.8	15.9406
90.9	15.9236
91	15.9064
91.1	15.8891
91.2	15.8716
91.3	15.8539
91.4	15.8362
91.5	15.8182
91.6	15.8002
91.7	15.782
91.8	15.7636
91.9	15.7451
92	15.7265
92.1	15.7078
92.2	15.6889
92.3	15.6698
92.4	15.6507
92.5	15.6314
92.6	15.612
92.7	15.5924
92.8	15.5727
92.9	15.5529
93	15.533
93.1	15.5129
93.2	15.4927
93.3	15.4724
93.4	15.452
93.5	15.4314
93.6	15.4107
93.7	15.3899
93.8	15.369
93.9	15.348
94	15.3268
94.1	15.3056
94.2	15.2842
94.3	15.2627
94.4	15.2411
94.5	15.2194
94.6	15.1975
94.7	15.1756
94.8	15.1535
94.9	15.1314
95	15.1091
95.1	15.0867
95.2	15.0643
95.3	15.0417
95.4	15.019
95.5	14.9962
95.6	14.9733
95.7	14.9503
95.8	14.9272
95.9	14.904
96	14.8807
96.1	14.8573
96.2	14.8338
96.3	14.8103
96.4	14.7866
96.5	14.7628
96.6	14.7389
96.7	14.715
96.8	14.6909
96.9	14.6668
97	14.6425
97.1	14.6182
97.2	14.5938
97.3	14.5693
97.4	14.5447
97.5	14.52
97.6	14.4952
97.7	14.4704
97.8	14.4454
97.9	14.4204
98	14.3953
98.1	14.3701
98.2	14.3449
98.3	14.3195
98.4	14.2941
98.5	14.2685
98.6	14.243
98.7	14.2173
98.8	14.1915
98.9	14.1657
99	14.1398
99.1	14.1138
99.2	14.0877
99.3	14.0616
99.4	14.0354
99.5	14.0091
99.6	13.9828
99.7	13.9563
99.8	13.9298
99.9	13.9032
100	13.8766
100.1	13.8499
100.2	13.8231
100.3	13.7962
100.4	13.7693
100.5	13.7423
100.6	13.7153
100.7	13.6881
100.8	13.661
100.9	13.6337
101	13.6064
101.1	13.579
101.2	13.5515
101.3	13.524
101.4	13.4964
101.5	13.4688
101.6	13.4411
101.7	13.4133
101.8	13.3855
101.9	13.3576
102	13.3296
102.1	13.3016
102.2	13.2736
102.3	13.2454
102.4	13.2172
102.5	13.189
102.6	13.1607
102.7	13.1323
102.8	13.1039
102.9	13.0754
103	13.0469
103.1	13.0183
103.2	12.9897
103.3	12.961
103.4	12.9323
103.5	12.9035
103.6	12.8746
103.7	12.8457
103.8	12.8167
103.9	12.7877
104	12.7587
104.1	12.7295
104.2	12.7004
104.3	12.6712
104.4	12.6419
104.5	12.6126
104.6	12.5832
104.7	12.5538
104.8	12.5243
104.9	12.4948
105	12.4653
105.1	12.4357
105.2	12.406
105.3	12.3763
105.4	12.3466
105.5	12.3168
105.6	12.287
105.7	12.2571
105.8	12.2271
105.9	12.1972
106	12.1672
106.1	12.1371
106.2	12.107
106.3	12.0768
106.4	12.0467
106.5	12.0164
106.6	11.9862
106.7	11.9558
106.8	11.9255
106.9	11.8951
107	11.8646
107.1	11.8342
107.2	11.8036
107.3	11.7731
107.4	11.7425
107.5	11.7118
107.6	11.6811
107.7	11.6504
107.8	11.6197
107.9	11.5889
108	11.558
108.1	11.5272
108.2	11.4962
108.3	11.4653
108.4	11.4343
108.5	11.4033
108.6	11.3722
108.7	11.3411
108.8	11.31
108.9	11.2788
109	11.2476
109.1	11.2164
109.2	11.1851
109.3	11.1538
109.4	11.1224
109.5	11.091
109.6	11.0596
109.7	11.0282
109.8	10.9967
109.9	10.9651
110	10.9336
110.1	10.902
110.2	10.8704
110.3	10.8387
110.4	10.807
110.5	10.7753
110.6	10.7436
110.7	10.7118
110.8	10.6799
110.9	10.6481
111	10.6162
111.1	10.5843
111.2	10.5524
111.3	10.5204
111.4	10.4884
111.5	10.4563
111.6	10.4243
111.7	10.3922
111.8	10.36
111.9	10.3279
112	10.2957
112.1	10.2634
112.2	10.2312
112.3	10.1989
112.4	10.1666
112.5	10.1343
112.6	10.1019
112.7	10.0695
112.8	10.037
112.9	10.0046
113	9.9721
113.1	9.93958
113.2	9.90704
113.3	9.87446
113.4	9.84186
113.5	9.80923
113.6	9.77657
113.7	9.74388
113.8	9.71117
113.9	9.67843
114	9.64565
114.1	9.61286
114.2	9.58003
114.3	9.54718
114.4	9.5143
114.5	9.48139
114.6	9.44845
114.7	9.41549
114.8	9.3825
114.9	9.34948
115	9.31644
115.1	9.28337
115.2	9.25027
115.3	9.21715
115.4	9.184
115.5	9.15082
115.6	9.11762
115.7	9.08439
115.8	9.05114
115.9	9.01786
116	8.98455
116.1	8.95122
116.2	8.91786
116.3	8.88447
116.4	8.85106
116.5	8.81762
116.6	8.78416
116.7	8.75067
116.8	8.71716
116.9	8.68362
117	8.65005
117.1	8.61646
117.2	8.58284
117.3	8.5492
117.4	8.51554
117.5	8.48184
117.6	8.44812
117.7	8.41438
117.8	8.38061
117.9	8.34682
118	8.313
118.1	8.27916
118.2	8.24529
118.3	8.21139
118.4	8.17747
118.5	8.14353
118.6	8.10956
118.7	8.07556
118.8	8.04154
118.9	8.0075
119	7.97343
119.1	7.93933
119.2	7.90521
119.3	7.87107
119.4	7.8369
119.5	7.8027
119.6	7.76848
119.7	7.73424
119.8	7.69997
119.9	7.66567
120	7.63135
120.1	7.59701
120.2	7.56264
120.3	7.52824
120.4	7.49382
120.5	7.45938
120.6	7.42491
120.7	7.39041
120.8	7.35589
120.9	7.32135
121	7.28678
121.1	7.25218
121.2	7.21756
121.3	7.18291
121.4	7.14824
121.5	7.11355
121.6	7.07883
121.7	7.04408
121.8	7.00931
121.9	6.97451
122	6.93969
122.1	6.90484
122.2	6.86996
122.3	6.83506
122.4	6.80014
122.5	6.76519
122.6	6.73021
122.7	6.69521
122.8	6.66019
122.9	6.62513
123	6.59005
123.1	6.55495
123.2	6.51982
123.3	6.48466
123.4	6.44948
123.5	6.41427
123.6	6.37904
123.7	6.34378
123.8	6.30849
123.9	6.27318
124	6.23784
124.1	6.20248
124.2	6.16709
124.3	6.13167
124.4	6.09623
124.5	6.06076
124.6	6.02526
124.7	5.98974
124.8	5.95419
124.9	5.91861
125	5.88301
125.1	5.84737
125.2	5.81172
125.3	5.77603
125.4	5.74032
125.5	5.70458
125.6	5.66882
125.7	5.63302
125.8	5.5972
125.9	5.56136
126	5.52548
126.1	5.48958
126.2	5.45365
126.3	5.41769
126.4	5.3817
126.5	5.34569
126.6	5.30965
126.7	5.27358
126.8	5.23748
126.9	5.20135
127	5.1652
127.1	5.12902
127.2	5.09281
127.3	5.05657
127.4	5.0203
127.5	4.984
127.6	4.94768
127.7	4.91132
127.8	4.87494
127.9	4.83853
128	4.80209
128.1	4.76562
128.2	4.72912
128.3	4.69259
128.4	4.65603
128.5	4.61945
128.6	4.58283
128.7	4.54618
128.8	4.50951
128.9	4.4728
129	4.43606
129.1	4.3993
129.2	4.3625
129.3	4.32568
129.4	4.28882
129.5	4.25193
129.6	4.21502
129.7	4.17807
129.8	4.14109
129.9	4.10408
130	4.06704
130.1	4.02997
130.2	3.99287
130.3	3.95573
130.4	3.91857
130.5	3.88137
130.6	3.84415
130.7	3.80689
130.8	3.7696
130.9	3.73228
131	3.69492
131.1	3.65754
131.2	3.62012
131.3	3.58267
131.4	3.54519
131.5	3.50768
131.6	3.47013
131.7	3.43255
131.8	3.39494
131.9	3.3573
132	3.31962
132.1	3.28191
132.2	3.24417
132.3	3.2064
132.4	3.16859
132.5	3.13075
132.6	3.09287
132.7	3.05496
132.8	3.01702
132.9	2.97905
133	2.94104
133.1	2.90299
133.2	2.86492
133.3	2.82681
133.4	2.78866
133.5	2.75048
133.6	2.71227
133.7	2.67402
133.8	2.63574
133.9	2.59742
134	2.55907
134.1	2.52069
134.2	2.48227
134.3	2.44381
134.4	2.40532
134.5	2.36679
134.6	2.32823
134.7	2.28964
134.8	2.251
134.9	2.21234
135	2.17363
135.1	2.13489
135.2	2.09612
135.3	2.05731
135.4	2.01846
135.5	1.97958
135.6	1.94066
135.7	1.90171
135.8	1.86271
135.9	1.82369
136	1.78462
136.1	1.74552
136.2	1.70638
136.3	1.66721
136.4	1.628
136.5	1.58875
136.6	1.54946
136.7	1.51014
136.8	1.47078
136.9	1.43138
137	1.39195
137.1	1.35248
137.2	1.31297
137.3	1.27342
137.4	1.23384
137.5	1.19421
137.6	1.15455
137.7	1.11486
137.8	1.07512
137.9	1.03534
138	0.995532
138.1	0.955681
138.2	0.915792
138.3	0.875864
138.4	0.835897
138.5	0.795892
138.6	0.755849
138.7	0.715766
138.8	0.675645
138.9	0.635485
139	0.595286
139.1	0.555048
139.2	0.514771
139.3	0.474455
139.4	0.4341
139.5	0.393705
139.6	0.353271
139.7	0.312798
139.8	0.272285
139.9	0.231732
140	0.19114
140.1	0.150509
140.2	0.109837
140.3	0.069126
140.4	0.028375
140.5	-0.0124159
140.6	-0.0532467
140.7	-0.0941176
140.8	-0.135028
140.9	-0.17598
141	-0.216971
141.1	-0.258002
141.2	-0.299074
141.3	-0.340186
141.4	-0.381338
141.5	-0.422531
141.6	-0.463764
141.7	-0.505037
141.8	-0.546351
141.9	-0.587706
142	-0.629101
142.1	-0.670537
142.2	-0.712014
142.3	-0.753531
142.4	-0.795089
142.5	-0.836688
142.6	-0.878328
142.7	-0.920009
142.8	-0.96173
142.9	-1.00349
143	-1.0453
143.1	-1.08714
143.2	-1.12903
143.3	-1.17095
143.4	-1.21292
143.5	-1.25493
143.6	-1.29698
143.7	-1.33907
143.8	-1.3812
143.9	-1.42337
144	-1.46558
144.1	-1.50784
144.2	-1.55014
144.3	-1.59247
144.4	-1.63485
144.5	-1.67727
144.6	-1.71973
144.7	-1.76223
144.8	-1.80478
144.9	-1.84736
145	-1.88999
145.1	-1.93265
145.2	-1.97536
145.3	-2.01811
145.4	-2.0609
145.5	-2.10373
145.6	-2.14661
145.7	-2.18952
145.8	-2.23247
145.9	-2.27547
146	-2.31851
146.1	-2.36159
146.2	-2.40471
146.3	-2.44787
146.4	-2.49107
146.5	-2.53431
146.6	-2.57759
146.7	-2.62092
146.8	-2.66428
146.9	-2.70769
147	-2.75114
147.1	-2.79462
147.2	-2.83815
147.3	-2.88172
147.4	-2.92533
147.5	-2.96898
147.6	-3.01267
147.7	-3.0564
147.8	-3.10018
147.9	-3.14399
148	-3.18784
148.1	-3.23174
148.2	-3.27567
148.3	-3.31964
148.4	-3.36366
148.5	-3.40771
148.6	-3.45181
148.7	-3.49594
148.8	-3.54012
148.9	-3.58433
149	-3.62859
149.1	-3.67288
149.2	-3.71722
149.3	-3.76159
149.4	-3.806
149.5	-3.85046
149.6	-3.89495
149.7	-3.93948
149.8	-3.98405
149.9	-4.02866
150	-4.07331
150.1	-4.118
150.2	-4.16273
150.3	-4.20749
150.4	-4.2523
150.5	-4.29714
150.6	-4.34203
150.7	-4.38695
150.8	-4.43191
150.9	-4.4769
151	-4.52194
151.1	-4.56701
151.2	-4.61213
151.3	-4.65728
151.4	-4.70246
151.5	-4.74769
151.6	-4.79295
151.7	-4.83825
151.8	-4.88359
151.9	-4.92897
152	-4.97438
152.1	-5.01983
152.2	-5.06532
152.3	-5.11084
152.4	-5.1564
152.5	-5.202
152.6	-5.24763
152.7	-5.2933
152.8	-5.33901
152.9	-5.38475
153	-5.43053
153.1	-5.47634
153.2	-5.52219
153.3	-5.56808
153.4	-5.614
153.5	-5.65996
153.6	-5.70595
153.7	-5.75197
153.8	-5.79804
153.9	-5.84413
154	-5.89026
154.1	-5.93643
154.2	-5.98263
154.3	-6.02886
154.4	-6.07513
154.5	-6.12144
154.6	-6.16777
154.7	-6.21414
154.8	-6.26055
154.9	-6.30698
155	-6.35346
155.1	-6.39996
155.2	-6.4465
155.3	-6.49307
155.4	-6.53967
155.5	-6.5863
155.6	-6.63297
155.7	-6.67967
155.8	-6.7264
155.9	-6.77316
156	-6.81996
156.1	-6.86679
156.2	-6.91365
156.3	-6.96054
156.4	-7.00746
156.5	-7.05441
156.6	-7.10139
156.7	-7.1484
156.8	-7.19545
156.9	-7.24252
157	-7.28963
157.1	-7.33676
157.2	-7.38393
157.3	-7.43112
157.4	-7.47835
157.5	-7.5256
157.6	-7.57288
157.7	-7.62019
157.8	-7.66753
157.9	-7.7149
158	-7.7623
158.1	-7.80973
158.2	-7.85718
158.3	-7.90466
158.4	-7.95217
158.5	-7.99971
158.6	-8.04728
158.7	-8.09487
158.8	-8.14249
158.9	-8.19014
159	-8.23782
159.1	-8.28552
159.2	-8.33325
159.3	-8.381
159.4	-8.42878
159.5	-8.47659
159.6	-8.52442
159.7	-8.57228
159.8	-8.62017
159.9	-8.66808
160	-8.71601
160.1	-8.76397
160.2	-8.81196
160.3	-8.85997
160.4	-8.908
160.5	-8.95606
160.6	-9.00415
160.7	-9.05225
160.8	-9.10039
160.9	-9.14854
161	-9.19672
161.1	-9.24492
161.2	-9.29315
161.3	-9.3414
161.4	-9.38967
161.5	-9.43797
161.6	-9.48629
161.7	-9.53463
161.8	-9.58299
161.9	-9.63138
162	-9.67978
162.1	-9.72821
162.2	-9.77667
162.3	-9.82514
162.4	-9.87363
162.5	-9.92215
162.6	-9.97069
162.7	-10.0192
162.8	-10.0678
162.9	-10.1164
163	-10.165
163.1	-10.2137
163.2	-10.2623
163.3	-10.311
163.4	-10.3597
163.5	-10.4084
163.6	-10.4572
163.7	-10.5059
163.8	-10.5547
163.9	-10.6035
164	-10.6523
164.1	-10.7012
164.2	-10.75
164.3	-10.7989
164.4	-10.8478
164.5	-10.8967
164.6	-10.9456
164.7	-10.9946
164.8	-11.0435
164.9	-11.0925
165	-11.1415
165.1	-11.1905
165.2	-11.2396
165.3	-11.2886
165.4	-11.3377
165.5	-11.3868
165.6	-11.4359
165.7	-11.485
165.8	-11.5342
165.9	-11.5833
166	-11.6325
166.1	-11.6817
166.2	-11.7309
166.3	-11.7801
166.4	-11.8293
166.5	-11.8786
166.6	-11.9278
166.7	-11.9771
166.8	-12.0264
166.9	-12.0757
167	-12.1251
167.1	-12.1744
167.2	-12.2238
167.3	-12.2731
167.4	-12.3225
167.5	-12.3719
167.6	-12.4213
167.7	-12.4708
167.8	-12.5202
167.9	-12.5697
168	-12.6191
168.1	-12.6686
168.2	-12.7181
168.3	-12.7677
168.4	-12.8172
168.5	-12.8667
168.6	-12.9163
168.7	-12.9659
168.8	-13.0154
168.9	-13.065
169	-13.1147
169.1	-13.1643
169.2	-13.2139
169.3	-13.2636
169.4	-13.3132
169.5	-13.3629
169.6	-13.4126
169.7	-13.4623
169.8	-13.512
169.9	-13.5617
170	-13.6115
170.1	-13.6612
170.2	-13.711
170.3	-13.7608
170.4	-13.8106
170.5	-13.8604
170.6	-13.9102
170.7	-13.96
170.8	-14.0099
170.9	-14.0597
171	-14.1096
171.1	-14.1595
171.2	-14.2093
171.3	-14.2592
171.4	-14.3092
171.5	-14.3591
171.6	-14.409
171.7	-14.459
171.8	-14.5089
171.9	-14.5589
172	-14.6089
172.1	-14.6589
172.2	-14.7089
172.3	-14.7589
172.4	-14.8089
172.5	-14.859
172.6	-14.909
172.7	-14.9591
172.8	-15.0092
172.9	-15.0593
173	-15.1094
173.1	-15.1595
173.2	-15.2096
173.3	-15.2598
173.4	-15.3099
173.5	-15.3601
173.6	-15.4103
173.7	-15.4604
173.8	-15.5106
173.9	-15.5608
174	-15.6111
174.1	-15.6613
174.2	-15.7116
174.3	-15.7618
174.4	-15.8121
174.5	-15.8624
174.6	-15.9127
174.7	-15.963
174.8	-16.0133
174.9	-16.0636
175	-16.114
175.1	-16.1643
175.2	-16.2147
175.3	-16.2651
175.4	-16.3155
175.5	-16.3659
175.6	-16.4163
175.7	-16.4668
175.8	-16.5172
175.9	-16.5677
176	-16.6182
176.1	-16.6686
176.2	-16.7192
176.3	-16.7697
176.4	-16.8202
176.5	-16.8708
176.6	-16.9213
176.7	-16.9719
176.8	-17.0225
176.9	-17.0731
177	-17.1237
177.1	-17.1743
177.2	-17.225
177.3	-17.2757
177.4	-17.3263
177.5	-17.377
177.6	-17.4278
177.7	-17.4785
177.8	-17.5292
177.9	-17.58
178	-17.6308
178.1	-17.6816
178.2	-17.7324
178.3	-17.7832
178.4	-17.834
178.5	-17.8849
178.6	-17.9358
178.7	-17.9867
178.8	-18.0376
178.9	-18.0885
179	-18.1395
179.1	-18.1905
179.2	-18.2415
179.3	-18.2925
179.4	-18.3435
179.5	-18.3946
179.6	-18.4456
179.7	-18.4967
179.8	-18.5479
179.9	-18.599
180	-18.6501
180.1	-18.7013
180.2	-18.7525
180.3	-18.8037
180.4	-18.855
180.5	-18.9063
180.6	-18.9575
180.7	-19.0089
180.8	-19.0602
180.9	-19.1116
181	-19.163
181.1	-19.2144
181.2	-19.2658
181.3	-19.3173
181.4	-19.3688
181.5	-19.4203
181.6	-19.4718
181.7	-19.5234
181.8	-19.575
181.9	-19.6266
182	-19.6783
182.1	-19.73
182.2	-19.7817
182.3	-19.8334
182.4	-19.8852
182.5	-19.937
182.6	-19.9888
182.7	-20.0407
182.8	-20.0926
182.9	-20.1445
183	-20.1965
183.1	-20.2485
183.2	-20.3005
183.3	-20.3526
183.4	-20.4047
183.5	-20.4568
183.6	-20.509
183.7	-20.5612
183.8	-20.6134
183.9	-20.6657
184	-20.718
184.1	-20.7704
184.2	-20.8228
184.3	-20.8752
184.4	-20.9277
184.5	-20.9802
184.6	-21.0328
184.7	-21.0854
184.8	-21.138
184.9	-21.1907
185	-21.2434
185.1	-21.2962
185.2	-21.349
185.3	-21.4019
185.4	-21.4548
185.5	-21.5078
185.6	-21.5608
185.7	-21.6138
185.8	-21.667
185.9	-21.7201
186	-21.7733
186.1	-21.8266
186.2	-21.8799
186.3	-21.9333
186.4	-21.9867
186.5	-22.0401
186.6	-22.0937
186.7	-22.1473
186.8	-22.2009
186.9	-22.2546
187	-22.3084
187.1	-22.3622
187.2	-22.416
187.3	-22.47
187.4	-22.524
187.5	-22.578
187.6	-22.6322
187.7	-22.6863
187.8	-22.7406
187.9	-22.7949
188	-22.8493
188.1	-22.9037
188.2	-22.9583
188.3	-23.0128
188.4	-23.0675
188.5	-23.1222
188.6	-23.177
188.7	-23.2319
188.8	-23.2869
188.9	-23.3419
189	-23.397
189.1	-23.4522
189.2	-23.5074
189.3	-23.5627
189.4	-23.6182
189.5	-23.6737
189.6	-23.7292
189.7	-23.7849
189.8	-23.8406
189.9	-23.8965
190	-23.9524
190.1	-24.0084
190.2	-24.0645
190.3	-24.1206
190.4	-24.1769
190.5	-24.2333
190.6	-24.2897
190.7	-24.3463
190.8	-24.4029
190.9	-24.4596
191	-24.5165
191.1	-24.5734
191.2	-24.6304
191.3	-24.6876
191.4	-24.7448
191.5	-24.8021
191.6	-24.8596
191.7	-24.9171
191.8	-24.9748
191.9	-25.0325
192	-25.0904
192.1	-25.1484
192.2	-25.2064
192.3	-25.2647
192.4	-25.323
192.5	-25.3814
192.6	-25.4399
192.7	-25.4986
192.8	-25.5574
192.9	-25.6163
193	-25.6753
193.1	-25.7345
193.2	-25.7937
193.3	-25.8531
193.4	-25.9127
193.5	-25.9723
193.6	-26.0321
193.7	-26.092
193.8	-26.152
193.9	-26.2122
194	-26.2725
194.1	-26.333
194.2	-26.3936
194.3	-26.4543
194.4	-26.5151
194.5	-26.5761
194.6	-26.6373
194.7	-26.6986
194.8	-26.76
194.9	-26.8216
195	-26.8833
195.1	-26.9452
195.2	-27.0073
195.3	-27.0694
195.4	-27.1318
195.5	-27.1943
195.6	-27.2569
195.7	-27.3197
195.8	-27.3827
195.9	-27.4458
196	-27.5091
196.1	-27.5726
196.2	-27.6362
196.3	-27.7
196.4	-27.764
196.5	-27.8281
196.6	-27.8924
196.7	-27.9569
196.8	-28.0215
196.9	-28.0863
197	-28.1513
197.1	-28.2165
197.2	-28.2819
197.3	-28.3474
197.4	-28.4131
197.5	-28.479
197.6	-28.5451
197.7	-28.6114
197.8	-28.6779
197.9	-28.7445
198	-28.8114
198.1	-28.8784
198.2	-28.9456
198.3	-29.0131
198.4	-29.0807
198.5	-29.1485
198.6	-29.2165
198.7	-29.2848
198.8	-29.3532
198.9	-29.4218
199	-29.4907
199.1	-29.5597
199.2	-29.6289
199.3	-29.6984
199.4	-29.7681
199.5	-29.8379
199.6	-29.908
199.7	-29.9784
199.8	-30.0489
199.9	-30.1196
200	-30.1906
200.1	-30.2618
200.2	-30.3332
200.3	-30.4048
200.4	-30.4766
200.5	-30.5487
200.6	-30.621
200.7	-30.6936
200.8	-30.7663
200.9	-30.8393
201	-30.9125
201.1	-30.986
201.2	-31.0597
201.3	-31.1336
201.4	-31.2078
201.5	-31.2822
201.6	-31.3568
201.7	-31.4317
201.8	-31.5068
201.9	-31.5822
202	-31.6578
202.1	-31.7336
202.2	-31.8098
202.3	-31.8861
202.4	-31.9627
202.5	-32.0396
202.6	-32.1167
202.7	-32.194
202.8	-32.2716
202.9	-32.3495
203	-32.4276
203.1	-32.506
203.2	-32.5846
203.3	-32.6635
203.4	-32.7427
203.5	-32.8221
203.6	-32.9018
203.7	-32.9817
203.8	-33.062
203.9	-33.1424
204	-33.2232
204.1	-33.3042
204.2	-33.3855
204.3	-33.4671
204.4	-33.5489
204.5	-33.631
204.6	-33.7134
204.7	-33.796
204.8	-33.8789
204.9	-33.9622
205	-34.0456
205.1	-34.1294
205.2	-34.2135
205.3	-34.2978
205.4	-34.3824
205.5	-34.4673
205.6	-34.5525
205.7	-34.638
205.8	-34.7237
205.9	-34.8098
206	-34.8961
206.1	-34.9827
206.2	-35.0696
206.3	-35.1568
206.4	-35.2444
206.5	-35.3322
206.6	-35.4202
206.7	-35.5086
206.8	-35.5973
206.9	-35.6863
207	-35.7756
207.1	-35.8652
207.2	-35.9551
207.3	-36.0453
207.4	-36.1358
207.5	-36.2267
207.6	-36.3178
207.7	-36.4092
207.8	-36.501
207.9	-36.593
208	-36.6854
208.1	-36.7781
208.2	-36.8711
208.3	-36.9644
208.4	-37.058
208.5	-37.152
208.6	-37.2462
208.7	-37.3408
208.8	-37.4357
208.9	-37.531
209	-37.6265
209.1	-37.7224
209.2	-37.8186
209.3	-37.9152
209.4	-38.0121
209.5	-38.1093
209.6	-38.2068
209.7	-38.3047
209.8	-38.4029
209.9	-38.5015
210	-38.6004
210.1	-38.6996
210.2	-38.7992
210.3	-38.8991
210.4	-38.9994
210.5	-39.1
210.6	-39.2009
210.7	-39.3022
210.8	-39.4039
210.9	-39.5059
211	-39.6083
211.1	-39.711
211.2	-39.8141
211.3	-39.9175
211.4	-40.0213
211.5	-40.1255
211.6	-40.23
211.7	-40.3349
211.8	-40.4402
211.9	-40.5458
212	-40.6518
212.1	-40.7582
212.2	-40.8649
212.3	-40.9721
212.4	-41.0796
212.5	-41.1875
212.6	-41.2958
212.7	-41.4044
212.8	-41.5135
212.9	-41.6229
213	-41.7327
213.1	-41.843
213.2	-41.9536
213.3	-42.0646
213.4	-42.176
213.5	-42.2878
213.6	-42.4
213.7	-42.5127
213.8	-42.6257
213.9	-42.7392
214	-42.853
214.1	-42.9673
214.2	-43.082
214.3	-43.1971
214.4	-43.3126
214.5	-43.4286
214.6	-43.545
214.7	-43.6618
214.8	-43.7791
214.9	-43.8968
215	-44.0149
215.1	-44.1335
215.2	-44.2525
215.3	-44.3719
215.4	-44.4918
215.5	-44.6122
215.6	-44.733
215.7	-44.8543
215.8	-44.976
215.9	-45.0982
216	-45.2209
216.1	-45.344
216.2	-45.4676
216.3	-45.5917
216.4	-45.7162
216.5	-45.8413
216.6	-45.9668
216.7	-46.0928
216.8	-46.2193
216.9	-46.3463
217	-46.4738
217.1	-46.6018
217.2	-46.7303
217.3	-46.8594
217.4	-46.9889
217.5	-47.1189
217.6	-47.2495
217.7	-47.3806
217.8	-47.5122
217.9	-47.6443
218	-47.777
218.1	-47.9102
218.2	-48.044
218.3	-48.1783
218.4	-48.3131
218.5	-48.4485
218.6	-48.5845
218.7	-48.721
218.8	-48.8581
218.9	-48.9957
219	-49.1339
219.1	-49.2727
219.2	-49.4121
219.3	-49.5521
219.4	-49.6926
219.5	-49.8338
219.6	-49.9755
219.7	-50.1179
219.8	-50.2608
219.9	-50.4044
220	-50.5486
220.1	-50.6934
220.2	-50.8388
220.3	-50.9848
220.4	-51.1315
220.5	-51.2788
220.6	-51.4268
220.7	-51.5754
220.8	-51.7246
220.9	-51.8745
221	-52.0251
221.1	-52.1763
221.2	-52.3282
221.3	-52.4807
221.4	-52.6339
221.5	-52.7878
221.6	-52.9424
221.7	-53.0977
221.8	-53.2536
221.9	-53.4103
222	-53.5676
222.1	-53.7257
222.2	-53.8844
222.3	-54.0439
222.4	-54.2041
222.5	-54.3649
222.6	-54.5265
222.7	-54.6889
222.8	-54.8519
222.9	-55.0157
223	-55.1802
223.1	-55.3455
223.2	-55.5114
223.3	-55.6782
223.4	-55.8456
223.5	-56.0138
223.6	-56.1828
223.7	-56.3524
223.8	-56.5229
223.9	-56.6941
224	-56.866
224.1	-57.0387
224.2	-57.2121
224.3	-57.3863
224.4	-57.5612
224.5	-57.7369
224.6	-57.9134
224.7	-58.0906
224.8	-58.2685
224.9	-58.4472
225	-58.6266
225.1	-58.8068
225.2	-58.9877
225.3	-59.1693
225.4	-59.3517
225.5	-59.5348
225.6	-59.7186
225.7	-59.9032
225.8	-60.0884
225.9	-60.2744
226	-60.4611
226.1	-60.6484
226.2	-60.8365
226.3	-61.0252
226.4	-61.2146
226.5	-61.4047
226.6	-61.5954
226.7	-61.7868
226.8	-61.9788
226.9	-62.1714
227	-62.3647
227.1	-62.5585
227.2	-62.7529
227.3	-62.9479
227.4	-63.1434
227.5	-63.3394
227.6	-63.536
227.7	-63.7331
227.8	-63.9307
227.9	-64.1287
228	-64.3272
228.1	-64.5261
228.2	-64.7254
228.3	-64.9251
228.4	-65.1251
228.5	-65.3255
228.6	-65.5262
228.7	-65.7272
228.8	-65.9284
228.9	-66.1299
229	-66.3315
229.1	-66.5334
229.2	-66.7353
229.3	-66.9374
229.4	-67.1396
229.5	-67.3418
229.6	-67.544
229.7	-67.7462
229.8	-67.9483
229.9	-68.1503
230	-68.3522
230.1	-68.554
230.2	-68.7555
230.3	-68.9568
230.4	-69.1578
230.5	-69.3585
230.6	-69.5588
230.7	-69.7587
230.8	-69.9582
230.9	-70.1572
231	-70.3556
231.1	-70.5535
231.2	-70.7507
231.3	-70.9473
231.4	-71.1432
231.5	-71.3383
231.6	-71.5327
231.7	-71.7262
231.8	-71.9188
231.9	-72.1106
232	-72.3013
232.1	-72.4911
232.2	-72.6798
232.3	-72.8674
232.4	-73.0538
232.5	-73.2391
232.6	-73.4232
232.7	-73.6061
232.8	-73.7876
232.9	-73.9678
233	-74.1467
233.1	-74.3241
233.2	-74.5001
233.3	-74.6746
233.4	-74.8476
233.5	-75.019
233.6	-75.1889
233.7	-75.3572
233.8	-75.5238
233.9	-75.6887
234	-75.852
234.1	-76.0136
234.2	-76.1734
234.3	-76.3314
234.4	-76.4877
234.5	-76.6421
234.6	-76.7947
234.7	-76.9455
234.8	-77.0944
234.9	-77.2414
235	-77.3866
235.1	-77.5298
235.2	-77.6711
235.3	-77.8105
235.4	-77.948
235.5	-78.0836
235.6	-78.2172
235.7	-78.3488
235.8	-78.4785
235.9	-78.6063
236	-78.7321
236.1	-78.856
236.2	-78.9779
236.3	-79.0979
236.4	-79.2159
236.5	-79.332
236.6	-79.4462
236.7	-79.5585
236.8	-79.6689
236.9	-79.7774
237	-79.884
237.1	-79.9887
237.2	-80.0915
237.3	-80.1926
237.4	-80.2918
237.5	-80.3891
237.6	-80.4847
237.7	-80.5785
237.8	-80.6705
237.9	-80.7608
238	-80.8494
238.1	-80.9362
238.2	-81.0213
238.3	-81.1048
238.4	-81.1866
238.5	-81.2668
238.6	-81.3454
238.7	-81.4224
238.8	-81.4978
238.9	-81.5716
239	-81.644
239.1	-81.7148
239.2	-81.7842
239.3	-81.8521
239.4	-81.9185
239.5	-81.9836
239.6	-82.0472
239.7	-82.1095
239.8	-82.1704
239.9	-82.23
240	-82.2883
240.1	-82.3453
240.2	-82.4011
240.3	-82.4556
240.4	-82.5089
240.5	-82.561
240.6	-82.612
240.7	-82.6618
240.8	-82.7104
240.9	-82.758
241	-82.8045
241.1	-82.8499
241.2	-82.8942
241.3	-82.9376
241.4	-82.9799
241.5	-83.0213
241.6	-83.0617
241.7	-83.1011
241.8	-83.1397
241.9	-83.1773
242	-83.214
242.1	-83.2499
242.2	-83.2849
242.3	-83.3191
242.4	-83.3525
242.5	-83.385
242.6	-83.4168
242.7	-83.4479
242.8	-83.4782
242.9	-83.5077
243	-83.5366
243.1	-83.5648
243.2	-83.5922
243.3	-83.6191
243.4	-83.6452
243.5	-83.6707
243.6	-83.6957
243.7	-83.72
243.8	-83.7437
243.9	-83.7668
244	-83.7894
244.1	-83.8114
244.2	-83.8328
244.3	-83.8538
244.4	-83.8742
244.5	-83.8941
244.6	-83.9136
244.7	-83.9325
244.8	-83.951
244.9	-83.9691
245	-83.9867
245.1	-84.0038
245.2	-84.0206
245.3	-84.0369
245.4	-84.0528
245.5	-84.0684
245.6	-84.0835
245.7	-84.0983
245.8	-84.1127
245.9	-84.1267
246	-84.1404
246.1	-84.1538
246.2	-84.1668
246.3	-84.1796
246.4	-84.192
246.5	-84.2041
246.6	-84.2159
246.7	-84.2274
246.8	-84.2386
246.9	-84.2495
247	-84.2602
247.1	-84.2706
247.2	-84.2808
247.3	-84.2907
247.4	-84.3004
247.5	-84.3098
247.6	-84.319
247.7	-84.328
247.8	-84.3367
247.9	-84.3453
248	-84.3536
248.1	-84.3617
248.2	-84.3697
248.3	-84.3774
248.4	-84.385
248.5	-84.3923
248.6	-84.3995
248.7	-84.4065
248.8	-84.4134
248.9	-84.4201
249	-84.4266
249.1	-84.433
249.2	-84.4392
249.3	-84.4453
249.4	-84.4512
249.5	-84.457
249.6	-84.4626
249.7	-84.4681
249.8	-84.4735
249.9	-84.4788
250	-84.4839
250.1	-84.4889
250.2	-84.4938
250.3	-84.4986
250.4	-84.5033
250.5	-84.5079
250.6	-84.5123
250.7	-84.5167
250.8	-84.521
250.9	-84.5251
251	-84.5292
251.1	-84.5332
251.2	-84.5371
251.3	-84.5409
251.4	-84.5446
251.5	-84.5482
251.6	-84.5518
251.7	-84.5552
251.8	-84.5586
251.9	-84.562
252	-84.5652
252.1	-84.5684
252.2	-84.5715
252.3	-84.5746
252.4	-84.5775
252.5	-84.5805
252.6	-84.5833
252.7	-84.5861
252.8	-84.5889
252.9	-84.5915
253	-84.5942
253.1	-84.5967
253.2	-84.5993
253.3	-84.6017
253.4	-84.6042
253.5	-84.6065
253.6	-84.6089
253.7	-84.6111
253.8	-84.6134
253.9	-84.6156
254	-84.6177
254.1	-84.6198
254.2	-84.6219
254.3	-84.6239
254.4	-84.6259
254.5	-84.6279
254.6	-84.6298
254.7	-84.6317
254.8	-84.6335
254.9	-84.6353
255	-84.6371
255.1	-84.6389
255.2	-84.6406
255.3	-84.6423
255.4	-84.6439
255.5	-84.6456
255.6	-84.6472
255.7	-84.6487
255.8	-84.6503
255.9	-84.6518
256	-84.6533
256.1	-84.6548
256.2	-84.6563
256.3	-84.6577
256.4	-84.6591
256.5	-84.6605
256.6	-84.6619
256.7	-84.6632
256.8	-84.6645
256.9	-84.6658
257	-84.6671
257.1	-84.6684
257.2	-84.6696
257.3	-84.6709
257.4	-84.6721
257.5	-84.6733
257.6	-84.6745
257.7	-84.6756
257.8	-84.6768
257.9	-84.6779
258	-84.679
258.1	-84.6802
258.2	-84.6813
258.3	-84.6823
258.4	-84.6834
258.5	-84.6845
258.6	-84.6855
258.7	-84.6865
258.8	-84.6875
258.9	-84.6886
259	-84.6895
259.1	-84.6905
259.2	-84.6915
259.3	-84.6925
259.4	-84.6934
259.5	-84.6944
259.6	-84.6953
259.7	-84.6962
259.8	-84.6971
259.9	-84.6981
260	-84.699
260.1	-84.6998
260.2	-84.7007
260.3	-84.7016
260.4	-84.7025
260.5	-84.7033
260.6	-84.7042
260.7	-84.705
260.8	-84.7059
260.9	-84.7067
261	-84.7075
261.1	-84.7083
261.2	-84.7091
261.3	-84.7099
261.4	-84.7107
261.5	-84.7115
261.6	-84.7123
261.7	-84.7131
261.8	-84.7139
261.9	-84.7146
262	-84.7154
262.1	-84.7162
262.2	-84.7169
262.3	-84.7177
262.4	-84.7184
262.5	-84.7191
262.6	-84.7199
262.7	-84.7206
262.8	-84.7213
262.9	-84.7221
263	-84.7228
263.1	-84.7235
263.2	-84.7242
263.3	-84.7249
263.4	-84.7256
263.5	-84.7263
263.6	-84.727
263.7	-84.7277
263.8	-84.7284
263.9	-84.7291
264	-84.7298
264.1	-84.7304
264.2	-84.7311
264.3	-84.7318
264.4	-84.7325
264.5	-84.7331
264.6	-84.7338
264.7	-84.7345
264.8	-84.7351
264.9	-84.7358
265	-84.7364
265.1	-84.7371
265.2	-84.7377
265.3	-84.7384
265.4	-84.739
265.5	-84.7397
265.6	-84.7403
265.7	-84.7409
265.8	-84.7416
265.9	-84.7422
266	-84.7428
266.1	-84.7435
266.2	-84.7441
266.3	-84.7447
266.4	-84.7454
266.5	-84.746
266.6	-84.7466
266.7	-84.7472
266.8	-84.7478
266.9	-84.7484
267	-84.7491
267.1	-84.7497
267.2	-84.7503
267.3	-84.7509
267.4	-84.7515
267.5	-84.7521
267.6	-84.7527
267.7	-84.7533
267.8	-84.7539
267.9	-84.7545
268	-84.7551
268.1	-84.7557
268.2	-84.7563
268.3	-84.7569
268.4	-84.7575
268.5	-84.7581
268.6	-84.7587
268.7	-84.7593
268.8	-84.7598
268.9	-84.7604
269	-84.761
269.1	-84.7616
269.2	-84.7622
269.3	-84.7628
269.4	-84.7634
269.5	-84.7639
269.6	-84.7645
269.7	-84.7651
269.8	-84.7657
269.9	-84.7662
270	-84.7668
270.1	-84.7674
270.2	-84.768
270.3	-84.7685
270.4	-84.7691
270.5	-84.7697
270.6	-84.7703
270.7	-84.7708
270.8	-84.7714
270.9	-84.772
271	-84.7725
271.1	-84.7731
271.2	-84.7737
271.3	-84.7742
271.4	-84.7748
271.5	-84.7753
271.6	-84.7759
271.7	-84.7765
271.8	-84.777
271.9	-84.7776
272	-84.7781
272.1	-84.7787
272.2	-84.7793
272.3	-84.7798
272.4	-84.7804
272.5	-84.7809
272.6	-84.7815
272.7	-84.782
272.8	-84.7826
272.9	-84.7831
273	-84.7837
273.1	-84.7842
273.2	-84.7848
273.3	-84.7853
273.4	-84.7859
273.5	-84.7864
273.6	-84.787
273.7	-84.7875
273.8	-84.7881
273.9	-84.7886
274	-84.7892
274.1	-84.7897
274.2	-84.7903
274.3	-84.7908
274.4	-84.7913
274.5	-84.7919
274.6	-84.7924
274.7	-84.793
274.8	-84.7935
274.9	-84.7941
275	-84.7946
275.1	-84.7951
275.2	-84.7957
275.3	-84.7962
275.4	-84.7968
275.5	-84.7973
275.6	-84.7978
275.7	-84.7984
275.8	-84.7989
275.9	-84.7994
276	-84.8
276.1	-84.8005
276.2	-84.801
276.3	-84.8016
276.4	-84.8021
276.5	-84.8026
276.6	-84.8032
276.7	-84.8037
276.8	-84.8042
276.9	-84.8048
277	-84.8053
277.1	-84.8058
277.2	-84.8063
277.3	-84.8069
277.4	-84.8074
277.5	-84.8079
277.6	-84.8085
277.7	-84.809
277.8	-84.8095
277.9	-84.81
278	-84.8106
278.1	-84.8111
278.2	-84.8116
278.3	-84.8121
278.4	-84.8127
278.5	-84.8132
278.6	-84.8137
278.7	-84.8142
278.8	-84.8147
278.9	-84.8153
279	-84.8158
279.1	-84.8163
279.2	-84.8168
279.3	-84.8173
279.4	-84.8179
279.5	-84.8184
279.6	-84.8189
279.7	-84.8194
279.8	-84.8199
279.9	-84.8204
280	-84.821
280.1	-84.8215
280.2	-84.822
280.3	-84.8225
280.4	-84.823
280.5	-84.8235
280.6	-84.8241
280.7	-84.8246
280.8	-84.8251
280.9	-84.8256
281	-84.8261
281.1	-84.8266
281.2	-84.8271
281.3	-84.8276
281.4	-84.8282
281.5	-84.8287
281.6	-84.8292
281.7	-84.8297
281.8	-84.8302
281.9	-84.8307
282	-84.8312
282.1	-84.8317
282.2	-84.8322
282.3	-84.8327
282.4	-84.8332
282.5	-84.8337
282.6	-84.8343
282.7	-84.8348
282.8	-84.8353
282.9	-84.8358
283	-84.8363
283.1	-84.8368
283.2	-84.8373
283.3	-84.8378
283.4	-84.8383
283.5	-84.8388
283.6	-84.8393
283.7	-84.8398
283.8	-84.8403
283.9	-84.8408
284	-84.8413
284.1	-84.8418
284.2	-84.8423
284.3	-84.8428
284.4	-84.8433
284.5	-84.8438
284.6	-84.8443
284.7	-84.8448
284.8	-84.8453
284.9	-84.8458
285	-84.8463
285.1	-84.8468
285.2	-84.8473
285.3	-84.8478
285.4	-84.8483
285.5	-84.8488
285.6	-84.8493
285.7	-84.8498
285.8	-84.8503
285.9	-84.8507
286	-84.8512
286.1	-84.8517
286.2	-84.8522
286.3	-84.8527
286.4	-84.8532
286.5	-84.8537
286.6	-84.8542
286.7	-84.8547
286.8	-84.8552
286.9	-84.8557
287	-84.8562
287.1	-84.8566
287.2	-84.8571
287.3	-84.8576
287.4	-84.8581
287.5	-84.8586
287.6	-84.8591
287.7	-84.8596
287.8	-84.8601
287.9	-84.8605
288	-84.861
288.1	-84.8615
288.2	-84.862
288.3	-84.8625
288.4	-84.863
288.5	-84.8635
288.6	-84.8639
288.7	-84.8644
288.8	-84.8649
288.9	-84.8654
289	-84.8659
289.1	-84.8664
289.2	-84.8668
289.3	-84.8673
289.4	-84.8678
289.5	-84.8683
289.6	-84.8688
289.7	-84.8693
289.8	-84.8697
289.9	-84.8702
290	-84.8707
290.1	-84.8712
290.2	-84.8717
290.3	-84.8721
290.4	-84.8726
290.5	-84.8731
290.6	-84.8736
290.7	-84.874
290.8	-84.8745
290.9	-84.875
291	-84.8755
291.1	-84.876
291.2	-84.8764
291.3	-84.8769
291.4	-84.8774
291.5	-84.8779
291.6	-84.8783
291.7	-84.8788
291.8	-84.8793
291.9	-84.8798
292	-84.8802
292.1	-84.8807
292.2	-84.8812
292.3	-84.8816
292.4	-84.8821
292.5	-84.8826
292.6	-84.8831
292.7	-84.8835
292.8	-84.884
292.9	-84.8845
293	-84.8849
293.1	-84.8854
293.2	-84.8859
293.3	-84.8863
293.4	-84.8868
293.5	-84.8873
293.6	-84.8878
293.7	-84.8882
293.8	-84.8887
293.9	-84.8892
294	-84.8896
294.1	-84.8901
294.2	-84.8906
294.3	-84.891
294.4	-84.8915
294.5	-84.892
294.6	-84.8924
294.7	-84.8929
294.8	-84.8933
294.9	-84.8938
295	-84.8943
295.1	-84.8947
295.2	-84.8952
295.3	-84.8957
295.4	-84.8961
295.5	-84.8966
295.6	-84.8971
295.7	-84.8975
295.8	-84.898
295.9	-84.8984
296	-84.8989
296.1	-84.8994
296.2	-84.8998
296.3	-84.9003
296.4	-84.9007
296.5	-84.9012
296.6	-84.9017
296.7	-84.9021
296.8	-84.9026
296.9	-84.903
297	-84.9035
297.1	-84.9039
297.2	-84.9044
297.3	-84.9049
297.4	-84.9053
297.5	-84.9058
297.6	-84.9062
297.7	-84.9067
297.8	-84.9071
297.9	-84.9076
298	-84.908
298.1	-84.9085
298.2	-84.909
298.3	-84.9094
298.4	-84.9099
298.5	-84.9103
298.6	-84.9108
298.7	-84.9112
298.8	-84.9117
298.9	-84.9121
299	-84.9126
299.1	-84.913
299.2	-84.9135
299.3	-84.9139
299.4	-84.9144
299.5	-84.9148
299.6	-84.9153
299.7	-84.9157
299.8	-84.9162
299.9	-84.9166
300	-84.9171
300.1	-84.9175
300.2	-84.918
300.3	-84.9184
300.4	-84.9189
300.5	-84.9193
300.6	-84.9198
300.7	-84.9202
300.8	-84.9207
300.9	-84.9211
301	-84.9216
301.1	-84.922
301.2	-84.9224
301.3	-84.9229
301.4	-84.9233
301.5	-84.9238
301.6	-84.9242
301.7	-84.9247
301.8	-84.9251
301.9	-84.9256
302	-84.926
302.1	-84.9264
302.2	-84.9269
302.3	-84.9273
302.4	-84.9278
302.5	-84.9282
302.6	-84.9286
302.7	-84.9291
302.8	-84.9295
302.9	-84.93
303	-84.9304
303.1	-84.9308
303.2	-84.9313
303.3	-84.9317
303.4	-84.9322
303.5	-84.9326
303.6	-84.933
303.7	-84.9335
303.8	-84.9339
303.9	-84.9344
304	-84.9348
304.1	-84.9352
304.2	-84.9357
304.3	-84.9361
304.4	-84.9365
304.5	-84.937
304.6	-84.9374
304.7	-84.9378
304.8	-84.9383
304.9	-84.9387
305	-84.9392
305.1	-84.9396
305.2	-84.94
305.3	-84.9405
305.4	-84.9409
305.5	-84.9413
305.6	-84.9418
305.7	-84.9422
305.8	-84.9426
305.9	-84.9431
306	-84.9435
306.1	-84.9439
306.2	-84.9443
306.3	-84.9448
306.4	-84.9452
306.5	-84.9456
306.6	-84.9461
306.7	-84.9465
306.8	-84.9469
306.9	-84.9474
307	-84.9478
307.1	-84.9482
307.2	-84.9486
307.3	-84.9491
307.4	-84.9495
307.5	-84.9499
307.6	-84.9504
307.7	-84.9508
307.8	-84.9512
307.9	-84.9516
308	-84.9521
308.1	-84.9525
308.2	-84.9529
308.3	-84.9533
308.4	-84.9538
308.5	-84.9542
308.6	-84.9546
308.7	-84.955
308.8	-84.9555
308.9	-84.9559
309	-84.9563
309.1	-84.9567
309.2	-84.9572
309.3	-84.9576
309.4	-84.958
309.5	-84.9584
309.6	-84.9588
309.7	-84.9593
309.8	-84.9597
309.9	-84.9601
310	-84.9605
310.1	-84.961
310.2	-84.9614
310.3	-84.9618
310.4	-84.9622
310.5	-84.9626
310.6	-84.9631
310.7	-84.9635
310.8	-84.9639
310.9	-84.9643
311	-84.9647
311.1	-84.9652
311.2	-84.9656
311.3	-84.966
311.4	-84.9664
311.5	-84.9668
311.6	-84.9672
311.7	-84.9677
311.8	-84.9681
311.9	-84.9685
312	-84.9689
312.1	-84.9693
312.2	-84.9697
312.3	-84.9701
312.4	-84.9706
312.5	-84.971
312.6	-84.9714
312.7	-84.9718
312.8	-84.9722
312.9	-84.9726
313	-84.973
313.1	-84.9735
313.2	-84.9739
313.3	-84.9743
313.4	-84.9747
313.5	-84.9751
313.6	-84.9755
313.7	-84.9759
313.8	-84.9763
313.9	-84.9768
314	-84.9772
314.1	-84.9776
314.2	-84.978
314.3	-84.9784
314.4	-84.9788
314.5	-84.9792
314.6	-84.9796
314.7	-84.98
314.8	-84.9804
314.9	-84.9809
315	-84.9813
315.1	-84.9817
315.2	-84.9821
315.3	-84.9825
315.4	-84.9829
315.5	-84.9833
315.6	-84.9837
315.7	-84.9841
315.8	-84.9845
315.9	-84.9849
316	-84.9853
316.1	-84.9857
316.2	-84.9861
316.3	-84.9865
316.4	-84.987
316.5	-84.9874
316.6	-84.9878
316.7	-84.9882
316.8	-84.9886
316.9	-84.989
317	-84.9894
317.1	-84.9898
317.2	-84.9902
317.3	-84.9906
317.4	-84.991
317.5	-84.9914
317.6	-84.9918
317.7	-84.9922
317.8	-84.9926
317.9	-84.993
318	-84.9934
318.1	-84.9938
318.2	-84.9942
318.3	-84.9946
318.4	-84.995
318.5	-84.9954
318.6	-84.9958
318.7	-84.9962
318.8	-84.9966
318.9	-84.997
319	-84.9974
319.1	-84.9978
319.2	-84.9982
319.3	-84.9986
319.4	-84.999
319.5	-84.9994
319.6	-84.9998
319.7	-85.0002
319.8	-85.0006
319.9	-85.001
320	-85.0014
320.1	-85.0018
320.2	-85.0022
320.3	-85.0026
320.4	-85.003
320.5	-85.0033
320.6	-85.0037
320.7	-85.0041
320.8	-85.0045
320.9	-85.0049
321	-85.0053
321.1	-85.0057
321.2	-85.0061
321.3	-85.0065
321.4	-85.0069
321.5	-85.0073
321.6	-85.0077
321.7	-85.0081
321.8	-85.0085
321.9	-85.0088
322	-85.0092
322.1	-85.0096
322.2	-85.01
322.3	-85.0104
322.4	-85.0108
322.5	-85.0112
322.6	-85.0116
322.7	-85.012
322.8	-85.0124
322.9	-85.0128
323	-85.0131
323.1	-85.0135
323.2	-85.0139
323.3	-85.0143
323.4	-85.0147
323.5	-85.0151
323.6	-85.0155
323.7	-85.0159
323.8	-85.0162
323.9	-85.0166
324	-85.017
324.1	-85.0174
324.2	-85.0178
324.3	-85.0182
324.4	-85.0186
324.5	-85.019
324.6	-85.0193
324.7	-85.0197
324.8	-85.0201
324.9	-85.0205
325	-85.0209
325.1	-85.0213
325.2	-85.0216
325.3	-85.022
325.4	-85.0224
325.5	-85.0228
325.6	-85.0232
325.7	-85.0236
325.8	-85.0239
325.9	-85.0243
326	-85.0247
326.1	-85.0251
326.2	-85.0255
326.3	-85.0259
326.4	-85.0262
326.5	-85.0266
326.6	-85.027
326.7	-85.0274
326.8	-85.0278
326.9	-85.0281
327	-85.0285
327.1	-85.0289
327.2	-85.0293
327.3	-85.0297
327.4	-85.03
327.5	-85.0304
327.6	-85.0308
327.7	-85.0312
327.8	-85.0316
327.9	-85.0319
328	-85.0323
328.1	-85.0327
328.2	-85.0331
328.3	-85.0334
328.4	-85.0338
328.5	-85.0342
328.6	-85.0346
328.7	-85.0349
328.8	-85.0353
328.9	-85.0357
329	-85.0361
329.1	-85.0364
329.2	-85.0368
329.3	-85.0372
329.4	-85.0376
329.5	-85.0379
329.6	-85.0383
329.7	-85.0387
329.8	-85.0391
329.9	-85.0394
330	-85.0398
330.1	-85.0402
330.2	-85.0406
330.3	-85.0409
330.4	-85.0413
330.5	-85.0417
330.6	-85.0421
330.7	-85.0424
330.8	-85.0428
330.9	-85.0432
331	-85.0435
331.1	-85.0439
331.2	-85.0443
331.3	-85.0446
331.4	-85.045
331.5	-85.0454
331.6	-85.0458
331.7	-85.0461
331.8	-85.0465
331.9	-85.0469
332	-85.0472
332.1	-85.0476
332.2	-85.048
332.3	-85.0483
332.4	-85.0487
332.5	-85.0491
332.6	-85.0494
332.7	-85.0498
332.8	-85.0502
332.9	-85.0505
333	-85.0509
333.1	-85.0513
333.2	-85.0516
333.3	-85.052
333.4	-85.0524
333.5	-85.0527
333.6	-85.0531
333.7	-85.0535
333.8	-85.0538
333.9	-85.0542
334	-85.0546
334.1	-85.0549
334.2	-85.0553
334.3	-85.0557
334.4	-85.056
334.5	-85.0564
334.6	-85.0568
334.7	-85.0571
334.8	-85.0575
334.9	-85.0578
335	-85.0582
335.1	-85.0586
335.2	-85.0589
335.3	-85.0593
335.4	-85.0597
335.5	-85.06
335.6	-85.0604
335.7	-85.0607
335.8	-85.0611
335.9	-85.0615
336	-85.0618
336.1	-85.0622
336.2	-85.0625
336.3	-85.0629
336.4	-85.0633
336.5	-85.0636
336.6	-85.064
336.7	-85.0643
336.8	-85.0647
336.9	-85.0651
337	-85.0654
337.1	-85.0658
337.2	-85.0661
337.3	-85.0665
337.4	-85.0668
337.5	-85.0672
337.6	-85.0676
337.7	-85.0679
337.8	-85.0683
337.9	-85.0686
338	-85.069
338.1	-85.0693
338.2	-85.0697
338.3	-85.0701
338.4	-85.0704
338.5	-85.0708
338.6	-85.0711
338.7	-85.0715
338.8	-85.0718
338.9	-85.0722
339	-85.0725
339.1	-85.0729
339.2	-85.0733
339.3	-85.0736
339.4	-85.074
339.5	-85.0743
339.6	-85.0747
339.7	-85.075
339.8	-85.0754
339.9	-85.0757
340	-85.0761
340.1	-85.0764
340.2	-85.0768
340.3	-85.0771
340.4	-85.0775
340.5	-85.0778
340.6	-85.0782
340.7	-85.0785
340.8	-85.0789
340.9	-85.0792
341	-85.0796
341.1	-85.0799
341.2	-85.0803
341.3	-85.0806
341.4	-85.081
341.5	-85.0813
341.6	-85.0817
341.7	-85.082
341.8	-85.0824
341.9	-85.0827
342	-85.0831
342.1	-85.0834
342.2	-85.0838
342.3	-85.0841
342.4	-85.0845
342.5	-85.0848
342.6	-85.0852
342.7	-85.0855
342.8	-85.0859
342.9	-85.0862
343	-85.0866
343.1	-85.0869
343.2	-85.0872
343.3	-85.0876
343.4	-85.0879
343.5	-85.0883
343.6	-85.0886
343.7	-85.089
343.8	-85.0893
343.9	-85.0897
344	-85.09
344.1	-85.0904
344.2	-85.0907
344.3	-85.091
344.4	-85.0914
344.5	-85.0917
344.6	-85.0921
344.7	-85.0924
344.8	-85.0928
344.9	-85.0931
345	-85.0934
345.1	-85.0938
345.2	-85.0941
345.3	-85.0945
345.4	-85.0948
345.5	-85.0951
345.6	-85.0955
345.7	-85.0958
345.8	-85.0962
345.9	-85.0965
346	-85.0969
346.1	-85.0972
346.2	-85.0975
346.3	-85.0979
346.4	-85.0982
346.5	-85.0986
346.6	-85.0989
346.7	-85.0992
346.8	-85.0996
346.9	-85.0999
347	-85.1002
347.1	-85.1006
347.2	-85.1009
347.3	-85.1013
347.4	-85.1016
347.5	-85.1019
347.6	-85.1023
347.7	-85.1026
347.8	-85.103
347.9	-85.1033
348	-85.1036
348.1	-85.104
348.2	-85.1043
348.3	-85.1046
348.4	-85.105
348.5	-85.1053
348.6	-85.1056
348.7	-85.106
348.8	-85.1063
348.9	-85.1066
349	-85.107
349.1	-85.1073
349.2	-85.1076
349.3	-85.108
349.4	-85.1083
349.5	-85.1087
349.6	-85.109
349.7	-85.1093
349.8	-85.1097
349.9	-85.11
350	-85.1103
350.1	-85.1107
350.2	-85.111
350.3	-85.1113
350.4	-85.1116
350.5	-85.112
350.6	-85.1123
350.7	-85.1126
350.8	-85.113
350.9	-85.1133
351	-85.1136
351.1	-85.114
351.2	-85.1143
351.3	-85.1146
351.4	-85.115
351.5	-85.1153
351.6	-85.1156
351.7	-85.1159
351.8	-85.1163
351.9	-85.1166
352	-85.1169
352.1	-85.1173
352.2	-85.1176
352.3	-85.1179
352.4	-85.1183
352.5	-85.1186
352.6	-85.1189
352.7	-85.1192
352.8	-85.1196
352.9	-85.1199
353	-85.1202
353.1	-85.1205
353.2	-85.1209
353.3	-85.1212
353.4	-85.1215
353.5	-85.1219
353.6	-85.1222
353.7	-85.1225
353.8	-85.1228
353.9	-85.1232
354	-85.1235
354.1	-85.1238
354.2	-85.1241
354.3	-85.1245
354.4	-85.1248
354.5	-85.1251
354.6	-85.1254
354.7	-85.1258
354.8	-85.1261
354.9	-85.1264
355	-85.1267
355.1	-85.1271
355.2	-85.1274
355.3	-85.1277
355.4	-85.128
355.5	-85.1283
355.6	-85.1287
355.7	-85.129
355.8	-85.1293
355.9	-85.1296
356	-85.13
356.1	-85.1303
356.2	-85.1306
356.3	-85.1309
356.4	-85.1312
356.5	-85.1316
356.6	-85.1319
356.7	-85.1322
356.8	-85.1325
356.9	-85.1328
357	-85.1332
357.1	-85.1335
357.2	-85.1338
357.3	-85.1341
357.4	-85.1344
357.5	-85.1348
357.6	-85.1351
357.7	-85.1354
357.8	-85.1357
357.9	-85.136
358	-85.1364
358.1	-85.1367
358.2	-85.137
358.3	-85.1373
358.4	-85.1376
358.5	-85.1379
358.6	-85.1383
358.7	-85.1386
358.8	-85.1389
358.9	-85.1392
359	-85.1395
359.1	-85.1398
359.2	-85.1402
359.3	-85.1405
359.4	-85.1408
359.5	-85.1411
359.6	-85.1414
359.7	-85.1417
359.8	-85.1421
359.9	-85.1424
360	-85.1427
360.1	-85.143
360.2	-85.1433
360.3	-85.1436
360.4	-85.1439
360.5	-85.1443
360.6	-85.1446
360.7	-85.1449
360.8	-85.1452
360.9	-85.1455
361	-85.1458
361.1	-85.1461
361.2	-85.1465
361.3	-85.1468
361.4	-85.1471
361.5	-85.1474
361.6	-85.1477
361.7	-85.148
361.8	-85.1483
361.9	-85.1486
362	-85.1489
362.1	-85.1493
362.2	-85.1496
362.3	-85.1499
362.4	-85.1502
362.5	-85.1505
362.6	-85.1508
362.7	-85.1511
362.8	-85.1514
362.9	-85.1517
363	-85.152
363.1	-85.1524
363.2	-85.1527
363.3	-85.153
363.4	-85.1533
363.5	-85.1536
363.6	-85.1539
363.7	-85.1542
363.8	-85.1545
363.9	-85.1548
364	-85.1551
364.1	-85.1554
364.2	-85.1558
364.3	-85.1561
364.4	-85.1564
364.5	-85.1567
364.6	-85.157
364.7	-85.1573
364.8	-85.1576
364.9	-85.1579
365	-85.1582
365.1	-85.1585
365.2	-85.1588
365.3	-85.1591
365.4	-85.1594
365.5	-85.1597
365.6	-85.16
365.7	-85.1603
365.8	-85.1607
365.9	-85.161
366	-85.1613
366.1	-85.1616
366.2	-85.1619
366.3	-85.1622
366.4	-85.1625
366.5	-85.1628
366.6	-85.1631
366.7	-85.1634
366.8	-85.1637
366.9	-85.164
367	-85.1643
367.1	-85.1646
367.2	-85.1649
367.3	-85.1652
367.4	-85.1655
367.5	-85.1658
367.6	-85.1661
367.7	-85.1664
367.8	-85.1667
367.9	-85.167
368	-85.1673
368.1	-85.1676
368.2	-85.1679
368.3	-85.1682
368.4	-85.1685
368.5	-85.1688
368.6	-85.1691
368.7	-85.1694
368.8	-85.1697
368.9	-85.17
369	-85.1703
369.1	-85.1706
369.2	-85.1709
369.3	-85.1712
369.4	-85.1715
369.5	-85.1718
369.6	-85.1721
369.7	-85.1724
369.8	-85.1727
369.9	-85.173
370	-85.1733
370.1	-85.1736
370.2	-85.1739
370.3	-85.1742
370.4	-85.1745
370.5	-85.1748
370.6	-85.1751
370.7	-85.1754
370.8	-85.1757
370.9	-85.176
371	-85.1763
371.1	-85.1766
371.2	-85.1769
371.3	-85.1772
371.4	-85.1775
371.5	-85.1778
371.6	-85.1781
371.7	-85.1783
371.8	-85.1786
371.9	-85.1789
372	-85.1792
372.1	-85.1795
372.2	-85.1798
372.3	-85.1801
372.4	-85.1804
372.5	-85.1807
372.6	-85.181
372.7	-85.1813
372.8	-85.1816
372.9	-85.1819
373	-85.1822
373.1	-85.1825
373.2	-85.1828
373.3	-85.183
373.4	-85.1833
373.5	-85.1836
373.6	-85.1839
373.7	-85.1842
373.8	-85.1845
373.9	-85.1848
374	-85.1851
374.1	-85.1854
374.2	-85.1857
374.3	-85.186
374.4	-85.1863
374.5	-85.1865
374.6	-85.1868
374.7	-85.1871
374.8	-85.1874
374.9	-85.1877
375	-85.188
375.1	-85.1883
375.2	-85.1886
375.3	-85.1889
375.4	-85.1892
375.5	-85.1894
375.6	-85.1897
375.7	-85.19
375.8	-85.1903
375.9	-85.1906
376	-85.1909
376.1	-85.1912
376.2	-85.1915
376.3	-85.1918
376.4	-85.192
376.5	-85.1923
376.6	-85.1926
376.7	-85.1929
376.8	-85.1932
376.9	-85.1935
377	-85.1938
377.1	-85.1941
377.2	-85.1943
377.3	-85.1946
377.4	-85.1949
377.5	-85.1952
377.6	-85.1955
377.7	-85.1958
377.8	-85.1961
377.9	-85.1963
378	-85.1966
378.1	-85.1969
378.2	-85.1972
378.3	-85.1975
378.4	-85.1978
378.5	-85.198
378.6	-85.1983
378.7	-85.1986
378.8	-85.1989
378.9	-85.1992
379	-85.1995
379.1	-85.1998
379.2	-85.2
379.3	-85.2003
379.4	-85.2006
379.5	-85.2009
379.6	-85.2012
379.7	-85.2015
379.8	-85.2017
379.9	-85.202
380	-85.2023
380.1	-85.2026
380.2	-85.2029
380.3	-85.2031
380.4	-85.2034
380.5	-85.2037
380.6	-85.204
380.7	-85.2043
380.8	-85.2045
380.9	-85.2048
381	-85.2051
381.1	-85.2054
381.2	-85.2057
381.3	-85.206
381.4	-85.2062
381.5	-85.2065
381.6	-85.2068
381.7	-85.2071
381.8	-85.2074
381.9	-85.2076
382	-85.2079
382.1	-85.2082
382.2	-85.2085
382.3	-85.2087
382.4	-85.209
382.5	-85.2093
382.6	-85.2096
382.7	-85.2099
382.8	-85.2101
382.9	-85.2104
383	-85.2107
383.1	-85.211
383.2	-85.2112
383.3	-85.2115
383.4	-85.2118
383.5	-85.2121
383.6	-85.2124
383.7	-85.2126
383.8	-85.2129
383.9	-85.2132
384	-85.2135
384.1	-85.2137
384.2	-85.214
384.3	-85.2143
384.4	-85.2146
384.5	-85.2148
384.6	-85.2151
384.7	-85.2154
384.8	-85.2157
384.9	-85.2159
385	-85.2162
385.1	-85.2165
385.2	-85.2168
385.3	-85.217
385.4	-85.2173
385.5	-85.2176
385.6	-85.2179
385.7	-85.2181
385.8	-85.2184
385.9	-85.2187
386	-85.219
386.1	-85.2192
386.2	-85.2195
386.3	-85.2198
386.4	-85.22
386.5	-85.2203
386.6	-85.2206
386.7	-85.2209
386.8	-85.2211
386.9	-85.2214
387	-85.2217
387.1	-85.2219
387.2	-85.2222
387.3	-85.2225
387.4	-85.2228
387.5	-85.223
387.6	-85.2233
387.7	-85.2236
387.8	-85.2238
387.9	-85.2241
388	-85.2244
388.1	-85.2247
388.2	-85.2249
388.3	-85.2252
388.4	-85.2255
388.5	-85.2257
388.6	-85.226
388.7	-85.2263
388.8	-85.2265
388.9	-85.2268
389	-85.2271
389.1	-85.2273
389.2	-85.2276
389.3	-85.2279
389.4	-85.2282
389.5	-85.2284
389.6	-85.2287
389.7	-85.229
389.8	-85.2292
389.9	-85.2295
390	-85.2298
390.1	-85.23
390.2	-85.2303
390.3	-85.2306
390.4	-85.2308
390.5	-85.2311
390.6	-85.2314
390.7	-85.2316
390.8	-85.2319
390.9	-85.2322
391	-85.2324
391.1	-85.2327
391.2	-85.233
391.3	-85.2332
391.4	-85.2335
391.5	-85.2338
391.6	-85.234
391.7	-85.2343
391.8	-85.2346
391.9	-85.2348
392	-85.2351
392.1	-85.2353
392.2	-85.2356
392.3	-85.2359
392.4	-85.2361
392.5	-85.2364
392.6	-85.2367
392.7	-85.2369
392.8	-85.2372
392.9	-85.2375
393	-85.2377
393.1	-85.238
393.2	-85.2382
393.3	-85.2385
393.4	-85.2388
393.5	-85.239
393.6	-85.2393
393.7	-85.2396
393.8	-85.2398
393.9	-85.2401
394	-85.2403
394.1	-85.2406
394.2	-85.2409
394.3	-85.2411
394.4	-85.2414
394.5	-85.2416
394.6	-85.2419
394.7	-85.2422
394.8	-85.2424
394.9	-85.2427
395	-85.243
395.1	-85.2432
395.2	-85.2435
395.3	-85.2437
395.4	-85.244
395.5	-85.2443
395.6	-85.2445
395.7	-85.2448
395.8	-85.245
395.9	-85.2453
396	-85.2455
396.1	-85.2458
396.2	-85.2461
396.3	-85.2463
396.4	-85.2466
396.5	-85.2468
396.6	-85.2471
396.7	-85.2474
396.8	-85.2476
396.9	-85.2479
397	-85.2481
397.1	-85.2484
397.2	-85.2486
397.3	-85.2489
397.4	-85.2492
397.5	-85.2494
397.6	-85.2497
397.7	-85.2499
397.8	-85.2502
397.9	-85.2504
398	-85.2507
398.1	-85.251
398.2	-85.2512
398.3	-85.2515
398.4	-85.2517
398.5	-85.252
398.6	-85.2522
398.7	-85.2525
398.8	-85.2527
398.9	-85.253
399	-85.2533
399.1	-85.2535
399.2	-85.2538
399.3	-85.254
399.4	-85.2543
399.5	-85.2545
399.6	-85.2548
399.7	-85.255
399.8	-85.2553
399.9	-85.2555
400	-85.2558
400.1	-85.256
400.2	-85.2563
400.3	-85.2566
400.4	-85.2568
400.5	-85.2571
400.6	-85.2573
400.7	-85.2576
400.8	-85.2578
400.9	-85.2581
401	-85.2583
401.1	-85.2586
401.2	-85.2588
401.3	-85.2591
401.4	-85.2593
401.5	-85.2596
401.6	-85.2598
401.7	-85.2601
401.8	-85.2603
401.9	-85.2606
402	-85.2608
402.1	-85.2611
402.2	-85.2613
402.3	-85.2616
402.4	-85.2618
402.5	-85.2621
402.6	-85.2623
402.7	-85.2626
402.8	-85.2628
402.9	-85.2631
403	-85.2633
403.1	-85.2636
403.2	-85.2638
403.3	-85.2641
403.4	-85.2643
403.5	-85.2646
403.6	-85.2648
403.7	-85.2651
403.8	-85.2653
403.9	-85.2656
404	-85.2658
404.1	-85.2661
404.2	-85.2663
404.3	-85.2666
404.4	-85.2668
404.5	-85.2671
404.6	-85.2673
404.7	-85.2676
404.8	-85.2678
404.9	-85.2681
405	-85.2683
405.1	-85.2685
405.2	-85.2688
405.3	-85.269
405.4	-85.2693
405.5	-85.2695
405.6	-85.2698
405.7	-85.27
405.8	-85.2703
405.9	-85.2705
406	-85.2708
406.1	-85.271
406.2	-85.2713
406.3	-85.2715
406.4	-85.2717
406.5	-85.272
406.6	-85.2722
406.7	-85.2725
406.8	-85.2727
406.9	-85.273
407	-85.2732
407.1	-85.2735
407.2	-85.2737
407.3	-85.2739
407.4	-85.2742
407.5	-85.2744
407.6	-85.2747
407.7	-85.2749
407.8	-85.2752
407.9	-85.2754
408	-85.2756
408.1	-85.2759
408.2	-85.2761
408.3	-85.2764
408.4	-85.2766
408.5	-85.2769
408.6	-85.2771
408.7	-85.2773
408.8	-85.2776
408.9	-85.2778
409	-85.2781
409.1	-85.2783
409.2	-85.2786
409.3	-85.2788
409.4	-85.279
409.5	-85.2793
409.6	-85.2795
409.7	-85.2798
409.8	-85.28
409.9	-85.2802
410	-85.2805
410.1	-85.2807
410.2	-85.281
410.3	-85.2812
410.4	-85.2814
410.5	-85.2817
410.6	-85.2819
410.7	-85.2822
410.8	-85.2824
410.9	-85.2826
411	-85.2829
411.1	-85.2831
411.2	-85.2834
411.3	-85.2836
411.4	-85.2838
411.5	-85.2841
411.6	-85.2843
411.7	-85.2846
411.8	-85.2848
411.9	-85.285
412	-85.2853
412.1	-85.2855
412.2	-85.2857
412.3	-85.286
412.4	-85.2862
412.5	-85.2865
412.6	-85.2867
412.7	-85.2869
412.8	-85.2872
412.9	-85.2874
413	-85.2876
413.1	-85.2879
413.2	-85.2881
413.3	-85.2884
413.4	-85.2886
413.5	-85.2888
413.6	-85.2891
413.7	-85.2893
413.8	-85.2895
413.9	-85.2898
414	-85.29
414.1	-85.2902
414.2	-85.2905
414.3	-85.2907
414.4	-85.2909
414.5	-85.2912
414.6	-85.2914
414.7	-85.2916
414.8	-85.2919
414.9	-85.2921
415	-85.2924
415.1	-85.2926
415.2	-85.2928
415.3	-85.2931
415.4	-85.2933
415.5	-85.2935
415.6	-85.2938
415.7	-85.294
415.8	-85.2942
415.9	-85.2945
416	-85.2947
416.1	-85.2949
416.2	-85.2952
416.3	-85.2954
416.4	-85.2956
416.5	-85.2959
416.6	-85.2961
416.7	-85.2963
416.8	-85.2965
416.9	-85.2968
417	-85.297
417.1	-85.2972
417.2	-85.2975
417.3	-85.2977
417.4	-85.2979
417.5	-85.2982
417.6	-85.2984
417.7	-85.2986
417.8	-85.2989
417.9	-85.2991
418	-85.2993
418.1	-85.2996
418.2	-85.2998
418.3	-85.3
418.4	-85.3002
418.5	-85.3005
418.6	-85.3007
418.7	-85.3009
418.8	-85.3012
418.9	-85.3014
419	-85.3016
419.1	-85.3019
419.2	-85.3021
419.3	-85.3023
419.4	-85.3025
419.5	-85.3028
419.6	-85.303
419.7	-85.3032
419.8	-85.3035
419.9	-85.3037
420	-85.3039
420.1	-85.3041
420.2	-85.3044
420.3	-85.3046
420.4	-85.3048
420.5	-85.3051
420.6	-85.3053
420.7	-85.3055
420.8	-85.3057
420.9	-85.306
421	-85.3062
421.1	-85.3064
421.2	-85.3066
421.3	-85.3069
421.4	-85.3071
421.5	-85.3073
421.6	-85.3075
421.7	-85.3078
421.8	-85.308
421.9	-85.3082
422	-85.3085
422.1	-85.3087
422.2	-85.3089
422.3	-85.3091
422.4	-85.3094
422.5	-85.3096
422.6	-85.3098
422.7	-85.31
422.8	-85.3103
422.9	-85.3105
423	-85.3107
423.1	-85.3109
423.2	-85.3112
423.3	-85.3114
423.4	-85.3116
423.5	-85.3118
423.6	-85.312
423.7	-85.3123
423.8	-85.3125
423.9	-85.3127
424	-85.3129
424.1	-85.3132
424.2	-85.3134
424.3	-85.3136
424.4	-85.3138
424.5	-85.3141
424.6	-85.3143
424.7	-85.3145
424.8	-85.3147
424.9	-85.315
425	-85.3152
425.1	-85.3154
425.2	-85.3156
425.3	-85.3158
425.4	-85.3161
425.5	-85.3163
425.6	-85.3165
425.7	-85.3167
425.8	-85.3169
425.9	-85.3172
426	-85.3174
426.1	-85.3176
426.2	-85.3178
426.3	-85.3181
426.4	-85.3183
426.5	-85.3185
426.6	-85.3187
426.7	-85.3189
426.8	-85.3192
426.9	-85.3194
427	-85.3196
427.1	-85.3198
427.2	-85.32
427.3	-85.3203
427.4	-85.3205
427.5	-85.3207
427.6	-85.3209
427.7	-85.3211
427.8	-85.3214
427.9	-85.3216
428	-85.3218
428.1	-85.322
428.2	-85.3222
428.3	-85.3224
428.4	-85.3227
428.5	-85.3229
428.6	-85.3231
428.7	-85.3233
428.8	-85.3235
428.9	-85.3238
429	-85.324
429.1	-85.3242
429.2	-85.3244
429.3	-85.3246
429.4	-85.3248
429.5	-85.3251
429.6	-85.3253
429.7	-85.3255
429.8	-85.3257
429.9	-85.3259
430	-85.3261
430.1	-85.3264
430.2	-85.3266
430.3	-85.3268
430.4	-85.327
430.5	-85.3272
430.6	-85.3274
430.7	-85.3277
430.8	-85.3279
430.9	-85.3281
431	-85.3283
431.1	-85.3285
431.2	-85.3287
431.3	-85.329
431.4	-85.3292
431.5	-85.3294
431.6	-85.3296
431.7	-85.3298
431.8	-85.33
431.9	-85.3302
432	-85.3305
432.1	-85.3307
432.2	-85.3309
432.3	-85.3311
432.4	-85.3313
432.5	-85.3315
432.6	-85.3317
432.7	-85.332
432.8	-85.3322
432.9	-85.3324
433	-85.3326
433.1	-85.3328
433.2	-85.333
433.3	-85.3332
433.4	-85.3335
433.5	-85.3337
433.6	-85.3339
433.7	-85.3341
433.8	-85.3343
433.9	-85.3345
434	-85.3347
434.1	-85.3349
434.2	-85.3352
434.3	-85.3354
434.4	-85.3356
434.5	-85.3358
434.6	-85.336
434.7	-85.3362
434.8	-85.3364
434.9	-85.3366
435	-85.3368
435.1	-85.3371
435.2	-85.3373
435.3	-85.3375
435.4	-85.3377
435.5	-85.3379
435.6	-85.3381
435.7	-85.3383
435.8	-85.3385
435.9	-85.3387
436	-85.339
436.1	-85.3392
436.2	-85.3394
436.3	-85.3396
436.4	-85.3398
436.5	-85.34
436.6	-85.3402
436.7	-85.3404
436.8	-85.3406
436.9	-85.3408
437	-85.341
437.1	-85.3413
437.2	-85.3415
437.3	-85.3417
437.4	-85.3419
437.5	-85.3421
437.6	-85.3423
437.7	-85.3425
437.8	-85.3427
437.9	-85.3429
438	-85.3431
438.1	-85.3433
438.2	-85.3435
438.3	-85.3438
438.4	-85.344
438.5	-85.3442
438.6	-85.3444
438.7	-85.3446
438.8	-85.3448
438.9	-85.345
439	-85.3452
439.1	-85.3454
439.2	-85.3456
439.3	-85.3458
439.4	-85.346
439.5	-85.3462
439.6	-85.3464
439.7	-85.3467
439.8	-85.3469
439.9	-85.3471
440	-85.3473
440.1	-85.3475
440.2	-85.3477
440.3	-85.3479
440.4	-85.3481
440.5	-85.3483
440.6	-85.3485
440.7	-85.3487
440.8	-85.3489
440.9	-85.3491
441	-85.3493
441.1	-85.3495
441.2	-85.3497
441.3	-85.3499
441.4	-85.3501
441.5	-85.3503
441.6	-85.3505
441.7	-85.3508
441.8	-85.351
441.9	-85.3512
442	-85.3514
442.1	-85.3516
442.2	-85.3518
442.3	-85.352
442.4	-85.3522
442.5	-85.3524
442.6	-85.3526
442.7	-85.3528
442.8	-85.353
442.9	-85.3532
443	-85.3534
443.1	-85.3536
443.2	-85.3538
443.3	-85.354
443.4	-85.3542
443.5	-85.3544
443.6	-85.3546
443.7	-85.3548
443.8	-85.355
443.9	-85.3552
444	-85.3554
444.1	-85.3556
444.2	-85.3558
444.3	-85.356
444.4	-85.3562
444.5	-85.3564
444.6	-85.3566
444.7	-85.3568
444.8	-85.357
444.9	-85.3572
445	-85.3574
445.1	-85.3576
445.2	-85.3578
445.3	-85.358
445.4	-85.3582
445.5	-85.3584
445.6	-85.3586
445.7	-85.3588
445.8	-85.359
445.9	-85.3592
446	-85.3594
446.1	-85.3596
446.2	-85.3598
446.3	-85.36
446.4	-85.3602
446.5	-85.3604
446.6	-85.3606
446.7	-85.3608
446.8	-85.361
446.9	-85.3612
447	-85.3614
447.1	-85.3616
447.2	-85.3618
447.3	-85.362
447.4	-85.3622
447.5	-85.3624
447.6	-85.3626
447.7	-85.3628
447.8	-85.363
447.9	-85.3632
448	-85.3634
448.1	-85.3636
448.2	-85.3638
448.3	-85.364
448.4	-85.3642
448.5	-85.3644
448.6	-85.3646
448.7	-85.3648
448.8	-85.365
448.9	-85.3652
449	-85.3654
449.1	-85.3656
449.2	-85.3658
449.3	-85.366
449.4	-85.3662
449.5	-85.3664
449.6	-85.3665
449.7	-85.3667
449.8	-85.3669
449.9	-85.3671
450	-85.3673
450.1	-85.3675
450.2	-85.3677
450.3	-85.3679
450.4	-85.3681
450.5	-85.3683
450.6	-85.3685
450.7	-85.3687
450.8	-85.3689
450.9	-85.3691
451	-85.3693
451.1	-85.3695
451.2	-85.3697
451.3	-85.3699
451.4	-85.3701
451.5	-85.3703
451.6	-85.3704
451.7	-85.3706
451.8	-85.3708
451.9	-85.371
452	-85.3712
452.1	-85.3714
452.2	-85.3716
452.3	-85.3718
452.4	-85.372
452.5	-85.3722
452.6	-85.3724
452.7	-85.3726
452.8	-85.3728
452.9	-85.373
453	-85.3732
453.1	-85.3733
453.2	-85.3735
453.3	-85.3737
453.4	-85.3739
453.5	-85.3741
453.6	-85.3743
453.7	-85.3745
453.8	-85.3747
453.9	-85.3749
454	-85.3751
454.1	-85.3753
454.2	-85.3755
454.3	-85.3757
454.4	-85.3758
454.5	-85.376
454.6	-85.3762
454.7	-85.3764
454.8	-85.3766
454.9	-85.3768
455	-85.377
455.1	-85.3772
455.2	-85.3774
455.3	-85.3776
455.4	-85.3778
455.5	-85.3779
455.6	-85.3781
455.7	-85.3783
455.8	-85.3785
455.9	-85.3787
456	-85.3789
456.1	-85.3791
456.2	-85.3793
456.3	-85.3795
456.4	-85.3796
456.5	-85.3798
456.6	-85.38
456.7	-85.3802
456.8	-85.3804
456.9	-85.3806
457	-85.3808
457.1	-85.381
457.2	-85.3812
457.3	-85.3813
457.4	-85.3815
457.5	-85.3817
457.6	-85.3819
457.7	-85.3821
457.8	-85.3823
457.9	-85.3825
458	-85.3827
458.1	-85.3829
458.2	-85.383
458.3	-85.3832
458.4	-85.3834
458.5	-85.3836
458.6	-85.3838
458.7	-85.384
458.8	-85.3842
458.9	-85.3844
459	-85.3845
459.1	-85.3847
459.2	-85.3849
459.3	-85.3851
459.4	-85.3853
459.5	-85.3855
459.6	-85.3857
459.7	-85.3858
459.8	-85.386
459.9	-85.3862
460	-85.3864
460.1	-85.3866
460.2	-85.3868
460.3	-85.387
460.4	-85.3871
460.5	-85.3873
460.6	-85.3875
460.7	-85.3877
460.8	-85.3879
460.9	-85.3881
461	-85.3883
461.1	-85.3884
461.2	-85.3886
461.3	-85.3888
461.4	-85.389
461.5	-85.3892
461.6	-85.3894
461.7	-85.3896
461.8	-85.3897
461.9	-85.3899
462	-85.3901
462.1	-85.3903
462.2	-85.3905
462.3	-85.3907
462.4	-85.3908
462.5	-85.391
462.6	-85.3912
462.7	-85.3914
462.8	-85.3916
462.9	-85.3918
463	-85.3919
463.1	-85.3921
463.2	-85.3923
463.3	-85.3925
463.4	-85.3927
463.5	-85.3929
463.6	-85.393
463.7	-85.3932
463.8	-85.3934
463.9	-85.3936
464	-85.3938
464.1	-85.3939
464.2	-85.3941
464.3	-85.3943
464.4	-85.3945
464.5	-85.3947
464.6	-85.3949
464.7	-85.395
464.8	-85.3952
464.9	-85.3954
465	-85.3956
465.1	-85.3958
465.2	-85.3959
465.3	-85.3961
465.4	-85.3963
465.5	-85.3965
465.6	-85.3967
465.7	-85.3969
465.8	-85.397
465.9	-85.3972
466	-85.3974
466.1	-85.3976
466.2	-85.3978
466.3	-85.3979
466.4	-85.3981
466.5	-85.3983
466.6	-85.3985
466.7	-85.3987
466.8	-85.3988
466.9	-85.399
467	-85.3992
467.1	-85.3994
467.2	-85.3996
467.3	-85.3997
467.4	-85.3999
467.5	-85.4001
467.6	-85.4003
467.7	-85.4004
467.8	-85.4006
467.9	-85.4008
468	-85.401
468.1	-85.4012
468.2	-85.4013
468.3	-85.4015
468.4	-85.4017
468.5	-85.4019
468.6	-85.4021
468.7	-85.4022
468.8	-85.4024
468.9	-85.4026
469	-85.4028
469.1	-85.4029
469.2	-85.4031
469.3	-85.4033
469.4	-85.4035
469.5	-85.4037
469.6	-85.4038
469.7	-85.404
469.8	-85.4042
469.9	-85.4044
470	-85.4045
470.1	-85.4047
470.2	-85.4049
470.3	-85.4051
470.4	-85.4052
470.5	-85.4054
470.6	-85.4056
470.7	-85.4058
470.8	-85.4059
470.9	-85.4061
471	-85.4063
471.1	-85.4065
471.2	-85.4067
471.3	-85.4068
471.4	-85.407
471.5	-85.4072
471.6	-85.4074
471.7	-85.4075
471.8	-85.4077
471.9	-85.4079
472	-85.4081
472.1	-85.4082
472.2	-85.4084
472.3	-85.4086
472.4	-85.4088
472.5	-85.4089
472.6	-85.4091
472.7	-85.4093
472.8	-85.4095
472.9	-85.4096
473	-85.4098
473.1	-85.41
473.2	-85.4101
473.3	-85.4103
473.4	-85.4105
473.5	-85.4107
473.6	-85.4108
473.7	-85.411
473.8	-85.4112
473.9	-85.4114
474	-85.4115
474.1	-85.4117
474.2	-85.4119
474.3	-85.4121
474.4	-85.4122
474.5	-85.4124
474.6	-85.4126
474.7	-85.4127
474.8	-85.4129
474.9	-85.4131
475	-85.4133
475.1	-85.4134
475.2	-85.4136
475.3	-85.4138
475.4	-85.414
475.5	-85.4141
475.6	-85.4143
475.7	-85.4145
475.8	-85.4146
475.9	-85.4148
476	-85.415
476.1	-85.4152
476.2	-85.4153
476.3	-85.4155
476.4	-85.4157
476.5	-85.4158
476.6	-85.416
476.7	-85.4162
476.8	-85.4164
476.9	-85.4165
477	-85.4167
477.1	-85.4169
477.2	-85.417
477.3	-85.4172
477.4	-85.4174
477.5	-85.4176
477.6	-85.4177
477.7	-85.4179
477.8	-85.4181
477.9	-85.4182
478	-85.4184
478.1	-85.4186
478.2	-85.4187
478.3	-85.4189
478.4	-85.4191
478.5	-85.4193
478.6	-85.4194
478.7	-85.4196
478.8	-85.4198
478.9	-85.4199
479	-85.4201
479.1	-85.4203
479.2	-85.4204
479.3	-85.4206
479.4	-85.4208
479.5	-85.4209
479.6	-85.4211
479.7	-85.4213
479.8	-85.4214
479.9	-85.4216
480	-85.4218
480.1	-85.422
480.2	-85.4221
480.3	-85.4223
480.4	-85.4225
480.5	-85.4226
480.6	-85.4228
480.7	-85.423
480.8	-85.4231
480.9	-85.4233
481	-85.4235
481.1	-85.4236
481.2	-85.4238
481.3	-85.424
481.4	-85.4241
481.5	-85.4243
481.6	-85.4245
481.7	-85.4246
481.8	-85.4248
481.9	-85.425
482	-85.4251
482.1	-85.4253
482.2	-85.4255
482.3	-85.4256
482.4	-85.4258
482.5	-85.426
482.6	-85.4261
482.7	-85.4263
482.8	-85.4265
482.9	-85.4266
483	-85.4268
483.1	-85.427
483.2	-85.4271
483.3	-85.4273
483.4	-85.4275
483.5	-85.4276
483.6	-85.4278
483.7	-85.428
483.8	-85.4281
483.9	-85.4283
484	-85.4284
484.1	-85.4286
484.2	-85.4288
484.3	-85.4289
484.4	-85.4291
484.5	-85.4293
484.6	-85.4294
484.7	-85.4296
484.8	-85.4298
484.9	-85.4299
485	-85.4301
485.1	-85.4303
485.2	-85.4304
485.3	-85.4306
485.4	-85.4307
485.5	-85.4309
485.6	-85.4311
485.7	-85.4312
485.8	-85.4314
485.9	-85.4316
486	-85.4317
486.1	-85.4319
486.2	-85.4321
486.3	-85.4322
486.4	-85.4324
486.5	-85.4325
486.6	-85.4327
486.7	-85.4329
486.8	-85.433
486.9	-85.4332
487	-85.4334
487.1	-85.4335
487.2	-85.4337
487.3	-85.4338
487.4	-85.434
487.5	-85.4342
487.6	-85.4343
487.7	-85.4345
487.8	-85.4347
487.9	-85.4348
488	-85.435
488.1	-85.4351
488.2	-85.4353
488.3	-85.4355
488.4	-85.4356
488.5	-85.4358
488.6	-85.4359
488.7	-85.4361
488.8	-85.4363
488.9	-85.4364
489	-85.4366
489.1	-85.4367
489.2	-85.4369
489.3	-85.4371
489.4	-85.4372
489.5	-85.4374
489.6	-85.4376
489.7	-85.4377
489.8	-85.4379
489.9	-85.438
490	-85.4382
490.1	-85.4384
490.2	-85.4385
490.3	-85.4387
490.4	-85.4388
490.5	-85.439
490.6	-85.4392
490.7	-85.4393
490.8	-85.4395
490.9	-85.4396
491	-85.4398
491.1	-85.4399
491.2	-85.4401
491.3	-85.4403
491.4	-85.4404
491.5	-85.4406
491.6	-85.4407
491.7	-85.4409
491.8	-85.4411
491.9	-85.4412
492	-85.4414
492.1	-85.4415
492.2	-85.4417
492.3	-85.4419
492.4	-85.442
492.5	-85.4422
492.6	-85.4423
492.7	-85.4425
492.8	-85.4426
492.9	-85.4428
493	-85.443
493.1	-85.4431
493.2	-85.4433
493.3	-85.4434
493.4	-85.4436
493.5	-85.4437
493.6	-85.4439
493.7	-85.4441
493.8	-85.4442
493.9	-85.4444
494	-85.4445
494.1	-85.4447
494.2	-85.4448
494.3	-85.445
494.4	-85.4452
494.5	-85.4453
494.6	-85.4455
494.7	-85.4456
494.8	-85.4458
494.9	-85.4459
495	-85.4461
495.1	-85.4463
495.2	-85.4464
495.3	-85.4466
495.4	-85.4467
495.5	-85.4469
495.6	-85.447
495.7	-85.4472
495.8	-85.4473
495.9	-85.4475
496	-85.4477
496.1	-85.4478
496.2	-85.448
496.3	-85.4481
496.4	-85.4483
496.5	-85.4484
496.6	-85.4486
496.7	-85.4487
496.8	-85.4489
496.9	-85.4491
497	-85.4492
497.1	-85.4494
497.2	-85.4495
497.3	-85.4497
497.4	-85.4498
497.5	-85.45
497.6	-85.4501
497.7	-85.4503
497.8	-85.4504
497.9	-85.4506
498	-85.4507
498.1	-85.4509
498.2	-85.4511
498.3	-85.4512
498.4	-85.4514
498.5	-85.4515
498.6	-85.4517
498.7	-85.4518
498.8	-85.452
498.9	-85.4521
499	-85.4523
499.1	-85.4524
499.2	-85.4526
499.3	-85.4527
499.4	-85.4529
499.5	-85.453
499.6	-85.4532
499.7	-85.4534
499.8	-85.4535
499.9	-85.4537
500	-85.4538
500.1	-85.454
500.2	-85.4541
500.3	-85.4543
500.4	-85.4544
500.5	-85.4546
500.6	-85.4547
500.7	-85.4549
500.8	-85.455
500.9	-85.4552
501	-85.4553
501.1	-85.4555
501.2	-85.4556
501.3	-85.4558
501.4	-85.4559
501.5	-85.4561
501.6	-85.4562
501.7	-85.4564
501.8	-85.4565
501.9	-85.4567
502	-85.4568
502.1	-85.457
502.2	-85.4571
502.3	-85.4573
502.4	-85.4574
502.5	-85.4576
502.6	-85.4577
502.7	-85.4579
502.8	-85.458
502.9	-85.4582
503	-85.4584
503.1	-85.4585
503.2	-85.4587
503.3	-85.4588
503.4	-85.459
503.5	-85.4591
503.6	-85.4592
503.7	-85.4594
503.8	-85.4595
503.9	-85.4597
504	-85.4598
504.1	-85.46
504.2	-85.4601
504.3	-85.4603
504.4	-85.4604
504.5	-85.4606
504.6	-85.4607
504.7	-85.4609
504.8	-85.461
504.9	-85.4612
505	-85.4613
505.1	-85.4615
505.2	-85.4616
505.3	-85.4618
505.4	-85.4619
505.5	-85.4621
505.6	-85.4622
505.7	-85.4624
505.8	-85.4625
505.9	-85.4627
506	-85.4628
506.1	-85.463
506.2	-85.4631
506.3	-85.4633
506.4	-85.4634
506.5	-85.4636
506.6	-85.4637
506.7	-85.4639
506.8	-85.464
506.9	-85.4642
507	-85.4643
507.1	-85.4644
507.2	-85.4646
507.3	-85.4647
507.4	-85.4649
507.5	-85.465
507.6	-85.4652
507.7	-85.4653
507.8	-85.4655
507.9	-85.4656
508	-85.4658
508.1	-85.4659
508.2	-85.4661
508.3	-85.4662
508.4	-85.4664
508.5	-85.4665
508.6	-85.4666
508.7	-85.4668
508.8	-85.4669
508.9	-85.4671
509	-85.4672
509.1	-85.4674
509.2	-85.4675
509.3	-85.4677
509.4	-85.4678
509.5	-85.468
509.6	-85.4681
509.7	-85.4682
509.8	-85.4684
509.9	-85.4685
510	-85.4687
510.1	-85.4688
510.2	-85.469
510.3	-85.4691
510.4	-85.4693
510.5	-85.4694
510.6	-85.4696
510.7	-85.4697
510.8	-85.4698
510.9	-85.47
511	-85.4701
511.1	-85.4703
511.2	-85.4704
511.3	-85.4706
511.4	-85.4707
511.5	-85.4709
511.6	-85.471
511.7	-85.4711
511.8	-85.4713
511.9	-85.4714
512	-85.4716
512.1	-85.4717
512.2	-85.4719
512.3	-85.472
512.4	-85.4721
512.5	-85.4723
512.6	-85.4724
512.7	-85.4726
512.8	-85.4727
512.9	-85.4729
513	-85.473
513.1	-85.4731
513.2	-85.4733
513.3	-85.4734
513.4	-85.4736
513.5	-85.4737
513.6	-85.4739
513.7	-85.474
513.8	-85.4741
513.9	-85.4743
514	-85.4744
514.1	-85.4746
514.2	-85.4747
514.3	-85.4749
514.4	-85.475
514.5	-85.4751
514.6	-85.4753
514.7	-85.4754
514.8	-85.4756
514.9	-85.4757
515	-85.4759
515.1	-85.476
515.2	-85.4761
515.3	-85.4763
515.4	-85.4764
515.5	-85.4766
515.6	-85.4767
515.7	-85.4768
515.8	-85.477
515.9	-85.4771
516	-85.4773
516.1	-85.4774
516.2	-85.4775
516.3	-85.4777
516.4	-85.4778
516.5	-85.478
516.6	-85.4781
516.7	-85.4782
516.8	-85.4784
516.9	-85.4785
517	-85.4787
517.1	-85.4788
517.2	-85.4789
517.3	-85.4791
517.4	-85.4792
517.5	-85.4794
517.6	-85.4795
517.7	-85.4796
517.8	-85.4798
517.9	-85.4799
518	-85.4801
518.1	-85.4802
518.2	-85.4803
518.3	-85.4805
518.4	-85.4806
518.5	-85.4808
518.6	-85.4809
518.7	-85.481
518.8	-85.4812
518.9	-85.4813
519	-85.4815
519.1	-85.4816
519.2	-85.4817
519.3	-85.4819
519.4	-85.482
519.5	-85.4822
519.6	-85.4823
519.7	-85.4824
519.8	-85.4826
519.9	-85.4827
520	-85.4828
520.1	-85.483
520.2	-85.4831
520.3	-85.4833
520.4	-85.4834
520.5	-85.4835
520.6	-85.4837
520.7	-85.4838
520.8	-85.4839
520.9	-85.4841
521	-85.4842
521.1	-85.4844
521.2	-85.4845
521.3	-85.4846
521.4	-85.4848
521.5	-85.4849
521.6	-85.485
521.7	-85.4852
521.8	-85.4853
521.9	-85.4855
522	-85.4856
522.1	-85.4857
522.2	-85.4859
522.3	-85.486
522.4	-85.4861
522.5	-85.4863
522.6	-85.4864
522.7	-85.4866
522.8	-85.4867
522.9	-85.4868
523	-85.487
523.1	-85.4871
523.2	-85.4872
523.3	-85.4874
523.4	-85.4875
523.5	-85.4876
523.6	-85.4878
523.7	-85.4879
523.8	-85.488
523.9	-85.4882
524	-85.4883
524.1	-85.4885
524.2	-85.4886
524.3	-85.4887
524.4	-85.4889
524.5	-85.489
524.6	-85.4891
524.7	-85.4893
524.8	-85.4894
524.9	-85.4895
525	-85.4897
525.1	-85.4898
525.2	-85.4899
525.3	-85.4901
525.4	-85.4902
525.5	-85.4903
525.6	-85.4905
525.7	-85.4906
525.8	-85.4908
525.9	-85.4909
526	-85.491
526.1	-85.4912
526.2	-85.4913
526.3	-85.4914
526.4	-85.4916
526.5	-85.4917
526.6	-85.4918
526.7	-85.492
526.8	-85.4921
526.9	-85.4922
527	-85.4924
527.1	-85.4925
527.2	-85.4926
527.3	-85.4928
527.4	-85.4929
527.5	-85.493
527.6	-85.4932
527.7	-85.4933
527.8	-85.4934
527.9	-85.4936
528	-85.4937
528.1	-85.4938
528.2	-85.494
528.3	-85.4941
528.4	-85.4942
528.5	-85.4944
528.6	-85.4945
528.7	-85.4946
528.8	-85.4948
528.9	-85.4949
529	-85.495
529.1	-85.4952
529.2	-85.4953
529.3	-85.4954
529.4	-85.4955
529.5	-85.4957
529.6	-85.4958
529.7	-85.4959
529.8	-85.4961
529.9	-85.4962
530	-85.4963
530.1	-85.4965
530.2	-85.4966
530.3	-85.4967
530.4	-85.4969
530.5	-85.497
530.6	-85.4971
530.7	-85.4973
530.8	-85.4974
530.9	-85.4975
531	-85.4977
531.1	-85.4978
531.2	-85.4979
531.3	-85.498
531.4	-85.4982
531.5	-85.4983
531.6	-85.4984
531.7	-85.4986
531.8	-85.4987
531.9	-85.4988
532	-85.499
532.1	-85.4991
532.2	-85.4992
532.3	-85.4994
532.4	-85.4995
532.5	-85.4996
532.6	-85.4997
532.7	-85.4999
532.8	-85.5
532.9	-85.5001
533	-85.5003
533.1	-85.5004
533.2	-85.5005
533.3	-85.5006
533.4	-85.5008
533.5	-85.5009
533.6	-85.501
533.7	-85.5012
533.8	-85.5013
533.9	-85.5014
534	-85.5016
534.1	-85.5017
534.2	-85.5018
534.3	-85.5019
534.4	-85.5021
534.5	-85.5022
534.6	-85.5023
534.7	-85.5025
534.8	-85.5026
534.9	-85.5027
535	-85.5028
535.1	-85.503
535.2	-85.5031
535.3	-85.5032
535.4	-85.5034
535.5	-85.5035
535.6	-85.5036
535.7	-85.5037
535.8	-85.5039
535.9	-85.504
536	-85.5041
536.1	-85.5043
536.2	-85.5044
536.3	-85.5045
536.4	-85.5046
536.5	-85.5048
536.6	-85.5049
536.7	-85.505
536.8	-85.5051
536.9	-85.5053
537	-85.5054
537.1	-85.5055
537.2	-85.5057
537.3	-85.5058
537.4	-85.5059
537.5	-85.506
537.6	-85.5062
537.7	-85.5063
537.8	-85.5064
537.9	-85.5065
538	-85.5067
538.1	-85.5068
538.2	-85.5069
538.3	-85.5071
538.4	-85.5072
538.5	-85.5073
538.6	-85.5074
538.7	-85.5076
538.8	-85.5077
538.9	-85.5078
539	-85.5079
539.1	-85.5081
539.2	-85.5082
539.3	-85.5083
539.4	-85.5084
539.5	-85.5086
539.6	-85.5087
539.7	-85.5088
539.8	-85.5089
539.9	-85.5091
540	-85.5092
540.1	-85.5093
540.2	-85.5094
540.3	-85.5096
540.4	-85.5097
540.5	-85.5098
540.6	-85.5099
540.7	-85.5101
540.8	-85.5102
540.9	-85.5103
541	-85.5104
541.1	-85.5106
541.2	-85.5107
541.3	-85.5108
541.4	-85.5109
541.5	-85.5111
541.6	-85.5112
541.7	-85.5113
541.8	-85.5114
541.9	-85.5116
542	-85.5117
542.1	-85.5118
542.2	-85.5119
542.3	-85.5121
542.4	-85.5122
542.5	-85.5123
542.6	-85.5124
542.7	-85.5126
542.8	-85.5127
542.9	-85.5128
543	-85.5129
543.1	-85.5131
543.2	-85.5132
543.3	-85.5133
543.4	-85.5134
543.5	-85.5136
543.6	-85.5137
543.7	-85.5138
543.8	-85.5139
543.9	-85.514
544	-85.5142
544.1	-85.5143
544.2	-85.5144
544.3	-85.5145
544.4	-85.5147
544.5	-85.5148
544.6	-85.5149
544.7	-85.515
544.8	-85.5152
544.9	-85.5153
545	-85.5154
545.1	-85.5155
545.2	-85.5156
545.3	-85.5158
545.4	-85.5159
545.5	-85.516
545.6	-85.5161
545.7	-85.5163
545.8	-85.5164
545.9	-85.5165
546	-85.5166
546.1	-85.5167
546.2	-85.5169
546.3	-85.517
546.4	-85.5171
546.5	-85.5172
546.6	-85.5173
546.7	-85.5175
546.8	-85.5176
546.9	-85.5177
547	-85.5178
547.1	-85.518
547.2	-85.5181
547.3	-85.5182
547.4	-85.5183
547.5	-85.5184
547.6	-85.5186
547.7	-85.5187
547.8	-85.5188
547.9	-85.5189
548	-85.519
548.1	-85.5192
548.2	-85.5193
548.3	-85.5194
548.4	-85.5195
548.5	-85.5197
548.6	-85.5198
548.7	-85.5199
548.8	-85.52
548.9	-85.5201
549	-85.5203
549.1	-85.5204
549.2	-85.5205
549.3	-85.5206
549.4	-85.5207
549.5	-85.5209
549.6	-85.521
549.7	-85.5211
549.8	-85.5212
549.9	-85.5213
550	-85.5215
550.1	-85.5216
550.2	-85.5217
550.3	-85.5218
550.4	-85.5219
550.5	-85.522
550.6	-85.5222
550.7	-85.5223
550.8	-85.5224
550.9	-85.5225
551	-85.5226
551.1	-85.5228
551.2	-85.5229
551.3	-85.523
551.4	-85.5231
551.5	-85.5232
551.6	-85.5234
551.7	-85.5235
551.8	-85.5236
551.9	-85.5237
552	-85.5238
552.1	-85.524
552.2	-85.5241
552.3	-85.5242
552.4	-85.5243
552.5	-85.5244
552.6	-85.5245
552.7	-85.5247
552.8	-85.5248
552.9	-85.5249
553	-85.525
553.1	-85.5251
553.2	-85.5253
553.3	-85.5254
553.4	-85.5255
553.5	-85.5256
553.6	-85.5257
553.7	-85.5258
553.8	-85.526
553.9	-85.5261
554	-85.5262
554.1	-85.5263
554.2	-85.5264
554.3	-85.5265
554.4	-85.5267
554.5	-85.5268
554.6	-85.5269
554.7	-85.527
554.8	-85.5271
554.9	-85.5272
555	-85.5274
555.1	-85.5275
555.2	-85.5276
555.3	-85.5277
555.4	-85.5278
555.5	-85.5279
555.6	-85.5281
555.7	-85.5282
555.8	-85.5283
555.9	-85.5284
556	-85.5285
556.1	-85.5286
556.2	-85.5288
556.3	-85.5289
556.4	-85.529
556.5	-85.5291
556.6	-85.5292
556.7	-85.5293
556.8	-85.5295
556.9	-85.5296
557	-85.5297
557.1	-85.5298
557.2	-85.5299
557.3	-85.53
557.4	-85.5302
557.5	-85.5303
557.6	-85.5304
557.7	-85.5305
557.8	-85.5306
557.9	-85.5307
558	-85.5308
558.1	-85.531
558.2	-85.5311
558.3	-85.5312
558.4	-85.5313
558.5	-85.5314
558.6	-85.5315
558.7	-85.5316
558.8	-85.5318
558.9	-85.5319
559	-85.532
559.1	-85.5321
559.2	-85.5322
559.3	-85.5323
559.4	-85.5325
559.5	-85.5326
559.6	-85.5327
559.7	-85.5328
559.8	-85.5329
559.9	-85.533
560	-85.5331
560.1	-85.5333
560.2	-85.5334
560.3	-85.5335
560.4	-85.5336
560.5	-85.5337
560.6	-85.5338
560.7	-85.5339
560.8	-85.534
560.9	-85.5342
561	-85.5343
561.1	-85.5344
561.2	-85.5345
561.3	-85.5346
561.4	-85.5347
561.5	-85.5348
561.6	-85.535
561.7	-85.5351
561.8	-85.5352
561.9	-85.5353
562	-85.5354
562.1	-85.5355
562.2	-85.5356
562.3	-85.5357
562.4	-85.5359
562.5	-85.536
562.6	-85.5361
562.7	-85.5362
562.8	-85.5363
562.9	-85.5364
563	-85.5365
563.1	-85.5366
563.2	-85.5368
563.3	-85.5369
563.4	-85.537
563.5	-85.5371
563.6	-85.5372
563.7	-85.5373
563.8	-85.5374
563.9	-85.5375
564	-85.5377
564.1	-85.5378
564.2	-85.5379
564.3	-85.538
564.4	-85.5381
564.5	-85.5382
564.6	-85.5383
564.7	-85.5384
564.8	-85.5386
564.9	-85.5387
565	-85.5388
565.1	-85.5389
565.2	-85.539
565.3	-85.5391
565.4	-85.5392
565.5	-85.5393
565.6	-85.5394
565.7	-85.5396
565.8	-85.5397
565.9	-85.5398
566	-85.5399
566.1	-85.54
566.2	-85.5401
566.3	-85.5402
566.4	-85.5403
566.5	-85.5404
566.6	-85.5406
566.7	-85.5407
566.8	-85.5408
566.9	-85.5409
567	-85.541
567.1	-85.5411
567.2	-85.5412
567.3	-85.5413
567.4	-85.5414
567.5	-85.5415
567.6	-85.5417
567.7	-85.5418
567.8	-85.5419
567.9	-85.542
568	-85.5421
568.1	-85.5422
568.2	-85.5423
568.3	-85.5424
568.4	-85.5425
568.5	-85.5426
568.6	-85.5428
568.7	-85.5429
568.8	-85.543
568.9	-85.5431
569	-85.5432
569.1	-85.5433
569.2	-85.5434
569.3	-85.5435
569.4	-85.5436
569.5	-85.5437
569.6	-85.5438
569.7	-85.544
569.8	-85.5441
569.9	-85.5442
570	-85.5443
570.1	-85.5444
570.2	-85.5445
570.3	-85.5446
570.4	-85.5447
570.5	-85.5448
570.6	-85.5449
570.7	-85.545
570.8	-85.5452
570.9	-85.5453
571	-85.5454
571.1	-85.5455
571.2	-85.5456
571.3	-85.5457
571.4	-85.5458
571.5	-85.5459
571.6	-85.546
571.7	-85.5461
571.8	-85.5462
571.9	-85.5463
572	-85.5464
572.1	-85.5466
572.2	-85.5467
572.3	-85.5468
572.4	-85.5469
572.5	-85.547
572.6	-85.5471
572.7	-85.5472
572.8	-85.5473
572.9	-85.5474
573	-85.5475
573.1	-85.5476
573.2	-85.5477
573.3	-85.5478
573.4	-85.548
573.5	-85.5481
573.6	-85.5482
573.7	-85.5483
573.8	-85.5484
573.9	-85.5485
574	-85.5486
574.1	-85.5487
574.2	-85.5488
574.3	-85.5489
574.4	-85.549
574.5	-85.5491
574.6	-85.5492
574.7	-85.5493
574.8	-85.5494
574.9	-85.5496
575	-85.5497
575.1	-85.5498
575.2	-85.5499
575.3	-85.55
575.4	-85.5501
575.5	-85.5502
575.6	-85.5503
575.7	-85.5504
575.8	-85.5505
575.9	-85.5506
576	-85.5507
576.1	-85.5508
576.2	-85.5509
576.3	-85.551
576.4	-85.5511
576.5	-85.5512
576.6	-85.5514
576.7	-85.5515
576.8	-85.5516
576.9	-85.5517
577	-85.5518
577.1	-85.5519
577.2	-85.552
577.3	-85.5521
577.4	-85.5522
577.5	-85.5523
577.6	-85.5524
577.7	-85.5525
577.8	-85.5526
577.9	-85.5527
578	-85.5528
578.1	-85.5529
578.2	-85.553
578.3	-85.5531
578.4	-85.5532
578.5	-85.5533
578.6	-85.5535
578.7	-85.5536
578.8	-85.5537
578.9	-85.5538
579	-85.5539
579.1	-85.554
579.2	-85.5541
579.3	-85.5542
579.4	-85.5543
579.5	-85.5544
579.6	-85.5545
579.7	-85.5546
579.8	-85.5547
579.9	-85.5548
580	-85.5549
580.1	-85.555
580.2	-85.5551
580.3	-85.5552
580.4	-85.5553
580.5	-85.5554
580.6	-85.5555
580.7	-85.5556
580.8	-85.5557
580.9	-85.5558
581	-85.5559
581.1	-85.5561
581.2	-85.5562
581.3	-85.5563
581.4	-85.5564
581.5	-85.5565
581.6	-85.5566
581.7	-85.5567
581.8	-85.5568
581.9	-85.5569
582	-85.557
582.1	-85.5571
582.2	-85.5572
582.3	-85.5573
582.4	-85.5574
582.5	-85.5575
582.6	-85.5576
582.7	-85.5577
582.8	-85.5578
582.9	-85.5579
583	-85.558
583.1	-85.5581
583.2	-85.5582
583.3	-85.5583
583.4	-85.5584
583.5	-85.5585
583.6	-85.5586
583.7	-85.5587
583.8	-85.5588
583.9	-85.5589
584	-85.559
584.1	-85.5591
584.2	-85.5592
584.3	-85.5593
584.4	-85.5594
584.5	-85.5595
584.6	-85.5596
584.7	-85.5597
584.8	-85.5598
584.9	-85.5599
585	-85.56
585.1	-85.5601
585.2	-85.5602
585.3	-85.5603
585.4	-85.5604
585.5	-85.5606
585.6	-85.5607
585.7	-85.5608
585.8	-85.5609
585.9	-85.561
586	-85.5611
586.1	-85.5612
586.2	-85.5613
586.3	-85.5614
586.4	-85.5615
586.5	-85.5616
586.6	-85.5617
586.7	-85.5618
586.8	-85.5619
586.9	-85.562
587	-85.5621
587.1	-85.5622
587.2	-85.5623
587.3	-85.5624
587.4	-85.5625
587.5	-85.5626
587.6	-85.5627
587.7	-85.5628
587.8	-85.5629
587.9	-85.563
588	-85.5631
588.1	-85.5632
588.2	-85.5633
588.3	-85.5634
588.4	-85.5635
588.5	-85.5636
588.6	-85.5637
588.7	-85.5638
588.8	-85.5639
588.9	-85.564
589	-85.5641
589.1	-85.5642
589.2	-85.5643
589.3	-85.5644
589.4	-85.5645
589.5	-85.5646
589.6	-85.5647
589.7	-85.5648
589.8	-85.5649
589.9	-85.565
590	-85.5651
590.1	-85.5652
590.2	-85.5653
590.3	-85.5654
590.4	-85.5655
590.5	-85.5656
590.6	-85.5656
590.7	-85.5657
590.8	-85.5658
590.9	-85.5659
591	-85.566
591.1	-85.5661
591.2	-85.5662
591.3	-85.5663
591.4	-85.5664
591.5	-85.5665
591.6	-85.5666
591.7	-85.5667
591.8	-85.5668
591.9	-85.5669
592	-85.567
592.1	-85.5671
592.2	-85.5672
592.3	-85.5673
592.4	-85.5674
592.5	-85.5675
592.6	-85.5676
592.7	-85.5677
592.8	-85.5678
592.9	-85.5679
593	-85.568
593.1	-85.5681
593.2	-85.5682
593.3	-85.5683
593.4	-85.5684
593.5	-85.5685
593.6	-85.5686
593.7	-85.5687
593.8	-85.5688
593.9	-85.5689
594	-85.569
594.1	-85.5691
594.2	-85.5692
594.3	-85.5693
594.4	-85.5694
594.5	-85.5695
594.6	-85.5696
594.7	-85.5697
594.8	-85.5698
594.9	-85.5699
595	-85.57
595.1	-85.57
595.2	-85.5701
595.3	-85.5702
595.4	-85.5703
595.5	-85.5704
595.6	-85.5705
595.7	-85.5706
595.8	-85.5707
595.9	-85.5708
596	-85.5709
596.1	-85.571
596.2	-85.5711
596.3	-85.5712
596.4	-85.5713
596.5	-85.5714
596.6	-85.5715
596.7	-85.5716
596.8	-85.5717
596.9	-85.5718
597	-85.5719
597.1	-85.572
597.2	-85.5721
597.3	-85.5722
597.4	-85.5723
597.5	-85.5724
597.6	-85.5725
597.7	-85.5726
597.8	-85.5726
597.9	-85.5727
598	-85.5728
598.1	-85.5729
598.2	-85.573
598.3	-85.5731
598.4	-85.5732
598.5	-85.5733
598.6	-85.5734
598.7	-85.5735
598.8	-85.5736
598.9	-85.5737
599	-85.5738
599.1	-85.5739
599.2	-85.574
599.3	-85.5741
599.4	-85.5742
599.5	-85.5743
599.6	-85.5744
599.7	-85.5745
599.8	-85.5745
599.9	-85.5746
600	-85.5747
600.1	-85.5748
600.2	-85.5749
600.3	-85.575
600.4	-85.5751
600.5	-85.5752
600.6	-85.5753
600.7	-85.5754
600.8	-85.5755
600.9	-85.5756
601	-85.5757
601.1	-85.5758
601.2	-85.5759
601.3	-85.576
601.4	-85.5761
601.5	-85.5762
601.6	-85.5762
601.7	-85.5763
601.8	-85.5764
601.9	-85.5765
602	-85.5766
602.1	-85.5767
602.2	-85.5768
602.3	-85.5769
602.4	-85.577
602.5	-85.5771
602.6	-85.5772
602.7	-85.5773
602.8	-85.5774
602.9	-85.5775
603	-85.5776
603.1	-85.5776
603.2	-85.5777
603.3	-85.5778
603.4	-85.5779
603.5	-85.578
603.6	-85.5781
603.7	-85.5782
603.8	-85.5783
603.9	-85.5784
604	-85.5785
604.1	-85.5786
604.2	-85.5787
604.3	-85.5788
604.4	-85.5789
604.5	-85.5789
604.6	-85.579
604.7	-85.5791
604.8	-85.5792
604.9	-85.5793
605	-85.5794
605.1	-85.5795
605.2	-85.5796
605.3	-85.5797
605.4	-85.5798
605.5	-85.5799
605.6	-85.58
605.7	-85.5801
605.8	-85.5801
605.9	-85.5802
606	-85.5803
606.1	-85.5804
606.2	-85.5805
606.3	-85.5806
606.4	-85.5807
606.5	-85.5808
606.6	-85.5809
606.7	-85.581
606.8	-85.5811
606.9	-85.5812
607	-85.5813
607.1	-85.5813
607.2	-85.5814
607.3	-85.5815
607.4	-85.5816
607.5	-85.5817
607.6	-85.5818
607.7	-85.5819
607.8	-85.582
607.9	-85.5821
608	-85.5822
608.1	-85.5823
608.2	-85.5823
608.3	-85.5824
608.4	-85.5825
608.5	-85.5826
608.6	-85.5827
608.7	-85.5828
608.8	-85.5829
608.9	-85.583
609	-85.5831
609.1	-85.5832
609.2	-85.5833
609.3	-85.5833
609.4	-85.5834
609.5	-85.5835
609.6	-85.5836
609.7	-85.5837
609.8	-85.5838
609.9	-85.5839
610	-85.584
610.1	-85.5841
610.2	-85.5842
610.3	-85.5842
610.4	-85.5843
610.5	-85.5844
610.6	-85.5845
610.7	-85.5846
610.8	-85.5847
610.9	-85.5848
611	-85.5849
611.1	-85.585
611.2	-85.5851
611.3	-85.5851
611.4	-85.5852
611.5	-85.5853
611.6	-85.5854
611.7	-85.5855
611.8	-85.5856
611.9	-85.5857
612	-85.5858
612.1	-85.5859
612.2	-85.586
612.3	-85.586
612.4	-85.5861
612.5	-85.5862
612.6	-85.5863
612.7	-85.5864
612.8	-85.5865
612.9	-85.5866
613	-85.5867
613.1	-85.5868
613.2	-85.5868
613.3	-85.5869
613.4	-85.587
613.5	-85.5871
613.6	-85.5872
613.7	-85.5873
613.8	-85.5874
613.9	-85.5875
614	-85.5876
614.1	-85.5876
614.2	-85.5877
614.3	-85.5878
614.4	-85.5879
614.5	-85.588
614.6	-85.5881
614.7	-85.5882
614.8	-85.5883
614.9	-85.5884
615	-85.5884
615.1	-85.5885
615.2	-85.5886
615.3	-85.5887
615.4	-85.5888
615.5	-85.5889
615.6	-85.589
615.7	-85.5891
615.8	-85.5891
615.9	-85.5892
616	-85.5893
616.1	-85.5894
616.2	-85.5895
616.3	-85.5896
616.4	-85.5897
616.5	-85.5898
616.6	-85.5898
616.7	-85.5899
616.8	-85.59
616.9	-85.5901
617	-85.5902
617.1	-85.5903
617.2	-85.5904
617.3	-85.5905
617.4	-85.5905
617.5	-85.5906
617.6	-85.5907
617.7	-85.5908
617.8	-85.5909
617.9	-85.591
618	-85.5911
618.1	-85.5912
618.2	-85.5912
618.3	-85.5913
618.4	-85.5914
618.5	-85.5915
618.6	-85.5916
618.7	-85.5917
618.8	-85.5918
618.9	-85.5919
619	-85.5919
619.1	-85.592
619.2	-85.5921
619.3	-85.5922
619.4	-85.5923
619.5	-85.5924
619.6	-85.5925
619.7	-85.5925
619.8	-85.5926
619.9	-85.5927
620	-85.5928
620.1	-85.5929
620.2	-85.593
620.3	-85.5931
620.4	-85.5931
620.5	-85.5932
620.6	-85.5933
620.7	-85.5934
620.8	-85.5935
620.9	-85.5936
621	-85.5937
621.1	-85.5937
621.2	-85.5938
621.3	-85.5939
621.4	-85.594
621.5	-85.5941
621.6	-85.5942
621.7	-85.5943
621.8	-85.5943
621.9	-85.5944
622	-85.5945
622.1	-85.5946
622.2	-85.5947
622.3	-85.5948
622.4	-85.5949
622.5	-85.5949
622.6	-85.595
622.7	-85.5951
622.8	-85.5952
622.9	-85.5953
623	-85.5954
623.1	-85.5955
623.2	-85.5955
623.3	-85.5956
623.4	-85.5957
623.5	-85.5958
623.6	-85.5959
623.7	-85.596
623.8	-85.5961
623.9	-85.5961
624	-85.5962
624.1	-85.5963
624.2	-85.5964
624.3	-85.5965
624.4	-85.5966
624.5	-85.5966
624.6	-85.5967
624.7	-85.5968
624.8	-85.5969
624.9	-85.597
625	-85.5971
625.1	-85.5971
625.2	-85.5972
625.3	-85.5973
625.4	-85.5974
625.5	-85.5975
625.6	-85.5976
625.7	-85.5977
625.8	-85.5977
625.9	-85.5978
626	-85.5979
626.1	-85.598
626.2	-85.5981
626.3	-85.5982
626.4	-85.5982
626.5	-85.5983
626.6	-85.5984
626.7	-85.5985
626.8	-85.5986
626.9	-85.5987
627	-85.5987
627.1	-85.5988
627.2	-85.5989
627.3	-85.599
627.4	-85.5991
627.5	-85.5992
627.6	-85.5992
627.7	-85.5993
627.8	-85.5994
627.9	-85.5995
628	-85.5996
628.1	-85.5997
628.2	-85.5997
628.3	-85.5998
628.4	-85.5999
628.5	-85.6
628.6	-85.6001
628.7	-85.6002
628.8	-85.6002
628.9	-85.6003
629	-85.6004
629.1	-85.6005
629.2	-85.6006
629.3	-85.6007
629.4	-85.6007
629.5	-85.6008
629.6	-85.6009
629.7	-85.601
629.8	-85.6011
629.9	-85.6011
630	-85.6012
630.1	-85.6013
630.2	-85.6014
630.3	-85.6015
630.4	-85.6016
630.5	-85.6016
630.6	-85.6017
630.7	-85.6018
630.8	-85.6019
630.9	-85.602
631	-85.6021
631.1	-85.6021
631.2	-85.6022
631.3	-85.6023
631.4	-85.6024
631.5	-85.6025
631.6	-85.6025
631.7	-85.6026
631.8	-85.6027
631.9	-85.6028
632	-85.6029
632.1	-85.603
632.2	-85.603
632.3	-85.6031
632.4	-85.6032
632.5	-85.6033
632.6	-85.6034
632.7	-85.6034
632.8	-85.6035
632.9	-85.6036
633	-85.6037
633.1	-85.6038
633.2	-85.6038
633.3	-85.6039
633.4	-85.604
633.5	-85.6041
633.6	-85.6042
633.7	-85.6043
633.8	-85.6043
633.9	-85.6044
634	-85.6045
634.1	-85.6046
634.2	-85.6047
634.3	-85.6047
634.4	-85.6048
634.5	-85.6049
634.6	-85.605
634.7	-85.6051
634.8	-85.6051
634.9	-85.6052
635	-85.6053
635.1	-85.6054
635.2	-85.6055
635.3	-85.6055
635.4	-85.6056
635.5	-85.6057
635.6	-85.6058
635.7	-85.6059
635.8	-85.6059
635.9	-85.606
636	-85.6061
636.1	-85.6062
636.2	-85.6063
636.3	-85.6063
636.4	-85.6064
636.5	-85.6065
636.6	-85.6066
636.7	-85.6067
636.8	-85.6067
636.9	-85.6068
637	-85.6069
637.1	-85.607
637.2	-85.6071
637.3	-85.6071
637.4	-85.6072
637.5	-85.6073
637.6	-85.6074
637.7	-85.6075
637.8	-85.6075
637.9	-85.6076
638	-85.6077
638.1	-85.6078
638.2	-85.6079
638.3	-85.6079
638.4	-85.608
638.5	-85.6081
638.6	-85.6082
638.7	-85.6083
638.8	-85.6083
638.9	-85.6084
639	-85.6085
639.1	-85.6086
639.2	-85.6086
639.3	-85.6087
639.4	-85.6088
639.5	-85.6089
639.6	-85.609
639.7	-85.609
639.8	-85.6091
639.9	-85.6092
640	-85.6093
640.1	-85.6094
640.2	-85.6094
640.3	-85.6095
640.4	-85.6096
640.5	-85.6097
640.6	-85.6097
640.7	-85.6098
640.8	-85.6099
640.9	-85.61
641	-85.6101
641.1	-85.6101
641.2	-85.6102
641.3	-85.6103
641.4	-85.6104
641.5	-85.6105
641.6	-85.6105
641.7	-85.6106
641.8	-85.6107
641.9	-85.6108
642	-85.6108
642.1	-85.6109
642.2	-85.611
642.3	-85.6111
642.4	-85.6112
642.5	-85.6112
642.6	-85.6113
642.7	-85.6114
642.8	-85.6115
642.9	-85.6115
643	-85.6116
643.1	-85.6117
643.2	-85.6118
643.3	-85.6119
643.4	-85.6119
643.5	-85.612
643.6	-85.6121
643.7	-85.6122
643.8	-85.6122
643.9	-85.6123
644	-85.6124
644.1	-85.6125
644.2	-85.6126
644.3	-85.6126
644.4	-85.6127
644.5	-85.6128
644.6	-85.6129
644.7	-85.6129
644.8	-85.613
644.9	-85.6131
645	-85.6132
645.1	-85.6132
645.2	-85.6133
645.3	-85.6134
645.4	-85.6135
645.5	-85.6136
645.6	-85.6136
645.7	-85.6137
645.8	-85.6138
645.9	-85.6139
646	-85.6139
646.1	-85.614
646.2	-85.6141
646.3	-85.6142
646.4	-85.6142
646.5	-85.6143
646.6	-85.6144
646.7	-85.6145
646.8	-85.6145
646.9	-85.6146
647	-85.6147
647.1	-85.6148
647.2	-85.6149
647.3	-85.6149
647.4	-85.615
647.5	-85.6151
647.6	-85.6152
647.7	-85.6152
647.8	-85.6153
647.9	-85.6154
648	-85.6155
648.1	-85.6155
648.2	-85.6156
648.3	-85.6157
648.4	-85.6158
648.5	-85.6158
648.6	-85.6159
648.7	-85.616
648.8	-85.6161
648.9	-85.6161
649	-85.6162
649.1	-85.6163
649.2	-85.6164
649.3	-85.6164
649.4	-85.6165
649.5	-85.6166
649.6	-85.6167
649.7	-85.6167
649.8	-85.6168
649.9	-85.6169
650	-85.617
650.1	-85.617
650.2	-85.6171
650.3	-85.6172
650.4	-85.6173
650.5	-85.6173
650.6	-85.6174
650.7	-85.6175
650.8	-85.6176
650.9	-85.6176
651	-85.6177
651.1	-85.6178
651.2	-85.6179
651.3	-85.6179
651.4	-85.618
651.5	-85.6181
651.6	-85.6182
651.7	-85.6182
651.8	-85.6183
651.9	-85.6184
652	-85.6185
652.1	-85.6185
652.2	-85.6186
652.3	-85.6187
652.4	-85.6188
652.5	-85.6188
652.6	-85.6189
652.7	-85.619
652.8	-85.6191
652.9	-85.6191
653	-85.6192
653.1	-85.6193
653.2	-85.6194
653.3	-85.6194
653.4	-85.6195
653.5	-85.6196
653.6	-85.6197
653.7	-85.6197
653.8	-85.6198
653.9	-85.6199
654	-85.6199
654.1	-85.62
654.2	-85.6201
654.3	-85.6202
654.4	-85.6202
654.5	-85.6203
654.6	-85.6204
654.7	-85.6205
654.8	-85.6205
654.9	-85.6206
655	-85.6207
655.1	-85.6208
655.2	-85.6208
655.3	-85.6209
655.4	-85.621
655.5	-85.6211
655.6	-85.6211
655.7	-85.6212
655.8	-85.6213
655.9	-85.6213
656	-85.6214
656.1	-85.6215
656.2	-85.6216
656.3	-85.6216
656.4	-85.6217
656.5	-85.6218
656.6	-85.6219
656.7	-85.6219
656.8	-85.622
656.9	-85.6221
657	-85.6221
657.1	-85.6222
657.2	-85.6223
657.3	-85.6224
657.4	-85.6224
657.5	-85.6225
657.6	-85.6226
657.7	-85.6227
657.8	-85.6227
657.9	-85.6228
658	-85.6229
658.1	-85.6229
658.2	-85.623
658.3	-85.6231
658.4	-85.6232
658.5	-85.6232
658.6	-85.6233
658.7	-85.6234
658.8	-85.6235
658.9	-85.6235
659	-85.6236
659.1	-85.6237
659.2	-85.6237
659.3	-85.6238
659.4	-85.6239
659.5	-85.624
659.6	-85.624
659.7	-85.6241
659.8	-85.6242
659.9	-85.6242
660	-85.6243
660.1	-85.6244
660.2	-85.6245
660.3	-85.6245
660.4	-85.6246
660.5	-85.6247
660.6	-85.6247
660.7	-85.6248
660.8	-85.6249
660.9	-85.625
661	-85.625
661.1	-85.6251
661.2	-85.6252
661.3	-85.6252
661.4	-85.6253
661.5	-85.6254
661.6	-85.6255
661.7	-85.6255
661.8	-85.6256
661.9	-85.6257
662	-85.6257
662.1	-85.6258
662.2	-85.6259
662.3	-85.626
662.4	-85.626
662.5	-85.6261
662.6	-85.6262
662.7	-85.6262
662.8	-85.6263
662.9	-85.6264
663	-85.6265
663.1	-85.6265
663.2	-85.6266
663.3	-85.6267
663.4	-85.6267
663.5	-85.6268
663.6	-85.6269
663.7	-85.627
663.8	-85.627
663.9	-85.6271
664	-85.6272
664.1	-85.6272
664.2	-85.6273
664.3	-85.6274
664.4	-85.6274
664.5	-85.6275
664.6	-85.6276
664.7	-85.6277
664.8	-85.6277
664.9	-85.6278
665	-85.6279
665.1	-85.6279
665.2	-85.628
665.3	-85.6281
665.4	-85.6281
665.5	-85.6282
665.6	-85.6283
665.7	-85.6284
665.8	-85.6284
665.9	-85.6285
666	-85.6286
666.1	-85.6286
666.2	-85.6287
666.3	-85.6288
666.4	-85.6288
666.5	-85.6289
666.6	-85.629
666.7	-85.6291
666.8	-85.6291
666.9	-85.6292
667	-85.6293
667.1	-85.6293
667.2	-85.6294
667.3	-85.6295
667.4	-85.6295
667.5	-85.6296
667.6	-85.6297
667.7	-85.6298
667.8	-85.6298
667.9	-85.6299
668	-85.63
668.1	-85.63
668.2	-85.6301
668.3	-85.6302
668.4	-85.6302
668.5	-85.6303
668.6	-85.6304
668.7	-85.6304
668.8	-85.6305
668.9	-85.6306
669	-85.6307
669.1	-85.6307
669.2	-85.6308
669.3	-85.6309
669.4	-85.6309
669.5	-85.631
669.6	-85.6311
669.7	-85.6311
669.8	-85.6312
669.9	-85.6313
670	-85.6313
670.1	-85.6314
670.2	-85.6315
670.3	-85.6315
670.4	-85.6316
670.5	-85.6317
670.6	-85.6318
670.7	-85.6318
670.8	-85.6319
670.9	-85.632
671	-85.632
671.1	-85.6321
671.2	-85.6322
671.3	-85.6322
671.4	-85.6323
671.5	-85.6324
671.6	-85.6324
671.7	-85.6325
671.8	-85.6326
671.9	-85.6326
672	-85.6327
672.1	-85.6328
672.2	-85.6328
672.3	-85.6329
672.4	-85.633
672.5	-85.633
672.6	-85.6331
672.7	-85.6332
672.8	-85.6332
672.9	-85.6333
673	-85.6334
673.1	-85.6335
673.2	-85.6335
673.3	-85.6336
673.4	-85.6337
673.5	-85.6337
673.6	-85.6338
673.7	-85.6339
673.8	-85.6339
673.9	-85.634
674	-85.6341
674.1	-85.6341
674.2	-85.6342
674.3	-85.6343
674.4	-85.6343
674.5	-85.6344
674.6	-85.6345
674.7	-85.6345
674.8	-85.6346
674.9	-85.6347
675	-85.6347
675.1	-85.6348
675.2	-85.6349
675.3	-85.6349
675.4	-85.635
675.5	-85.6351
675.6	-85.6351
675.7	-85.6352
675.8	-85.6353
675.9	-85.6353
676	-85.6354
676.1	-85.6355
676.2	-85.6355
676.3	-85.6356
676.4	-85.6357
676.5	-85.6357
676.6	-85.6358
676.7	-85.6359
676.8	-85.6359
676.9	-85.636
677	-85.6361
677.1	-85.6361
677.2	-85.6362
677.3	-85.6363
677.4	-85.6363
677.5	-85.6364
677.6	-85.6365
677.7	-85.6365
677.8	-85.6366
677.9	-85.6367
678	-85.6367
678.1	-85.6368
678.2	-85.6369
678.3	-85.6369
678.4	-85.637
678.5	-85.6371
678.6	-85.6371
678.7	-85.6372
678.8	-85.6373
678.9	-85.6373
679	-85.6374
679.1	-85.6375
679.2	-85.6375
679.3	-85.6376
679.4	-85.6377
679.5	-85.6377
679.6	-85.6378
679.7	-85.6379
679.8	-85.6379
679.9	-85.638
680	-85.6381
680.1	-85.6381
680.2	-85.6382
680.3	-85.6382
680.4	-85.6383
680.5	-85.6384
680.6	-85.6384
680.7	-85.6385
680.8	-85.6386
680.9	-85.6386
681	-85.6387
681.1	-85.6388
681.2	-85.6388
681.3	-85.6389
681.4	-85.639
681.5	-85.639
681.6	-85.6391
681.7	-85.6392
681.8	-85.6392
681.9	-85.6393
682	-85.6394
682.1	-85.6394
682.2	-85.6395
682.3	-85.6396
682.4	-85.6396
682.5	-85.6397
682.6	-85.6397
682.7	-85.6398
682.8	-85.6399
682.9	-85.6399
683	-85.64
683.1	-85.6401
683.2	-85.6401
683.3	-85.6402
683.4	-85.6403
683.5	-85.6403
683.6	-85.6404
683.7	-85.6405
683.8	-85.6405
683.9	-85.6406
684	-85.6407
684.1	-85.6407
684.2	-85.6408
684.3	-85.6408
684.4	-85.6409
684.5	-85.641
684.6	-85.641
684.7	-85.6411
684.8	-85.6412
684.9	-85.6412
685	-85.6413
685.1	-85.6414
685.2	-85.6414
685.3	-85.6415
685.4	-85.6416
685.5	-85.6416
685.6	-85.6417
685.7	-85.6417
685.8	-85.6418
685.9	-85.6419
686	-85.6419
686.1	-85.642
686.2	-85.6421
686.3	-85.6421
686.4	-85.6422
686.5	-85.6423
686.6	-85.6423
686.7	-85.6424
686.8	-85.6424
686.9	-85.6425
687	-85.6426
687.1	-85.6426
687.2	-85.6427
687.3	-85.6428
687.4	-85.6428
687.5	-85.6429
687.6	-85.643
687.7	-85.643
687.8	-85.6431
687.9	-85.6431
688	-85.6432
688.1	-85.6433
688.2	-85.6433
688.3	-85.6434
688.4	-85.6435
688.5	-85.6435
688.6	-85.6436
688.7	-85.6437
688.8	-85.6437
688.9	-85.6438
689	-85.6438
689.1	-85.6439
689.2	-85.644
689.3	-85.644
689.4	-85.6441
689.5	-85.6442
689.6	-85.6442
689.7	-85.6443
689.8	-85.6443
689.9	-85.6444
690	-85.6445
690.1	-85.6445
690.2	-85.6446
690.3	-85.6447
690.4	-85.6447
690.5	-85.6448
690.6	-85.6448
690.7	-85.6449
690.8	-85.645
690.9	-85.645
691	-85.6451
691.1	-85.6452
691.2	-85.6452
691.3	-85.6453
691.4	-85.6453
691.5	-85.6454
691.6	-85.6455
691.7	-85.6455
691.8	-85.6456
691.9	-85.6457
692	-85.6457
692.1	-85.6458
692.2	-85.6458
692.3	-85.6459
692.4	-85.646
692.5	-85.646
692.6	-85.6461
692.7	-85.6462
692.8	-85.6462
692.9	-85.6463
693	-85.6463
693.1	-85.6464
693.2	-85.6465
693.3	-85.6465
693.4	-85.6466
693.5	-85.6466
693.6	-85.6467
693.7	-85.6468
693.8	-85.6468
693.9	-85.6469
694	-85.647
694.1	-85.647
694.2	-85.6471
694.3	-85.6471
694.4	-85.6472
694.5	-85.6473
694.6	-85.6473
694.7	-85.6474
694.8	-85.6474
694.9	-85.6475
695	-85.6476
695.1	-85.6476
695.2	-85.6477
695.3	-85.6478
695.4	-85.6478
695.5	-85.6479
695.6	-85.6479
695.7	-85.648
695.8	-85.6481
695.9	-85.6481
696	-85.6482
696.1	-85.6482
696.2	-85.6483
696.3	-85.6484
696.4	-85.6484
696.5	-85.6485
696.6	-85.6486
696.7	-85.6486
696.8	-85.6487
696.9	-85.6487
697	-85.6488
697.1	-85.6489
697.2	-85.6489
697.3	-85.649
697.4	-85.649
697.5	-85.6491
697.6	-85.6492
697.7	-85.6492
697.8	-85.6493
697.9	-85.6493
698	-85.6494
698.1	-85.6495
698.2	-85.6495
698.3	-85.6496
698.4	-85.6496
698.5	-85.6497
698.6	-85.6498
698.7	-85.6498
698.8	-85.6499
698.9	-85.6499
699	-85.65
699.1	-85.6501
699.2	-85.6501
699.3	-85.6502
699.4	-85.6502
699.5	-85.6503
699.6	-85.6504
699.7	-85.6504
699.8	-85.6505
699.9	-85.6505
700	-85.6506
700.1	-85.6507
700.2	-85.6507
700.3	-85.6508
700.4	-85.6508
700.5	-85.6509
700.6	-85.651
700.7	-85.651
700.8	-85.6511
700.9	-85.6511
701	-85.6512
701.1	-85.6513
701.2	-85.6513
701.3	-85.6514
701.4	-85.6514
701.5	-85.6515
701.6	-85.6516
701.7	-85.6516
701.8	-85.6517
701.9	-85.6517
702	-85.6518
702.1	-85.6519
702.2	-85.6519
702.3	-85.652
702.4	-85.652
702.5	-85.6521
702.6	-85.6522
702.7	-85.6522
702.8	-85.6523
702.9	-85.6523
703	-85.6524
703.1	-85.6525
703.2	-85.6525
703.3	-85.6526
703.4	-85.6526
703.5	-85.6527
703.6	-85.6527
703.7	-85.6528
703.8	-85.6529
703.9	-85.6529
704	-85.653
704.1	-85.653
704.2	-85.6531
704.3	-85.6532
704.4	-85.6532
704.5	-85.6533
704.6	-85.6533
704.7	-85.6534
704.8	-85.6535
704.9	-85.6535
705	-85.6536
705.1	-85.6536
705.2	-85.6537
705.3	-85.6537
705.4	-85.6538
705.5	-85.6539
705.6	-85.6539
705.7	-85.654
705.8	-85.654
705.9	-85.6541
706	-85.6542
706.1	-85.6542
706.2	-85.6543
706.3	-85.6543
706.4	-85.6544
706.5	-85.6545
706.6	-85.6545
706.7	-85.6546
706.8	-85.6546
706.9	-85.6547
707	-85.6547
707.1	-85.6548
707.2	-85.6549
707.3	-85.6549
707.4	-85.655
707.5	-85.655
707.6	-85.6551
707.7	-85.6551
707.8	-85.6552
707.9	-85.6553
708	-85.6553
708.1	-85.6554
708.2	-85.6554
708.3	-85.6555
708.4	-85.6556
708.5	-85.6556
708.6	-85.6557
708.7	-85.6557
708.8	-85.6558
708.9	-85.6558
709	-85.6559
709.1	-85.656
709.2	-85.656
709.3	-85.6561
709.4	-85.6561
709.5	-85.6562
709.6	-85.6562
709.7	-85.6563
709.8	-85.6564
709.9	-85.6564
710	-85.6565
710.1	-85.6565
710.2	-85.6566
710.3	-85.6566
710.4	-85.6567
710.5	-85.6568
710.6	-85.6568
710.7	-85.6569
710.8	-85.6569
710.9	-85.657
711	-85.657
711.1	-85.6571
711.2	-85.6572
711.3	-85.6572
711.4	-85.6573
711.5	-85.6573
711.6	-85.6574
711.7	-85.6574
711.8	-85.6575
711.9	-85.6576
712	-85.6576
712.1	-85.6577
712.2	-85.6577
712.3	-85.6578
712.4	-85.6578
712.5	-85.6579
712.6	-85.658
712.7	-85.658
712.8	-85.6581
712.9	-85.6581
713	-85.6582
713.1	-85.6582
713.2	-85.6583
713.3	-85.6584
713.4	-85.6584
713.5	-85.6585
713.6	-85.6585
713.7	-85.6586
713.8	-85.6586
713.9	-85.6587
714	-85.6588
714.1	-85.6588
714.2	-85.6589
714.3	-85.6589
714.4	-85.659
714.5	-85.659
714.6	-85.6591
714.7	-85.6591
714.8	-85.6592
714.9	-85.6593
715	-85.6593
715.1	-85.6594
715.2	-85.6594
715.3	-85.6595
715.4	-85.6595
715.5	-85.6596
715.6	-85.6596
715.7	-85.6597
715.8	-85.6598
715.9	-85.6598
716	-85.6599
716.1	-85.6599
716.2	-85.66
716.3	-85.66
716.4	-85.6601
716.5	-85.6602
716.6	-85.6602
716.7	-85.6603
716.8	-85.6603
716.9	-85.6604
717	-85.6604
717.1	-85.6605
717.2	-85.6605
717.3	-85.6606
717.4	-85.6607
717.5	-85.6607
717.6	-85.6608
717.7	-85.6608
717.8	-85.6609
717.9	-85.6609
718	-85.661
718.1	-85.661
718.2	-85.6611
718.3	-85.6612
718.4	-85.6612
718.5	-85.6613
718.6	-85.6613
718.7	-85.6614
718.8	-85.6614
718.9	-85.6615
719	-85.6615
719.1	-85.6616
719.2	-85.6616
719.3	-85.6617
719.4	-85.6618
719.5	-85.6618
719.6	-85.6619
719.7	-85.6619
719.8	-85.662
719.9	-85.662
720	-85.6621
720.1	-85.6621
720.2	-85.6622
720.3	-85.6623
720.4	-85.6623
720.5	-85.6624
720.6	-85.6624
720.7	-85.6625
720.8	-85.6625
720.9	-85.6626
721	-85.6626
721.1	-85.6627
721.2	-85.6627
721.3	-85.6628
721.4	-85.6629
721.5	-85.6629
721.6	-85.663
721.7	-85.663
721.8	-85.6631
721.9	-85.6631
722	-85.6632
722.1	-85.6632
722.2	-85.6633
722.3	-85.6633
722.4	-85.6634
722.5	-85.6635
722.6	-85.6635
722.7	-85.6636
722.8	-85.6636
722.9	-85.6637
723	-85.6637
723.1	-85.6638
723.2	-85.6638
723.3	-85.6639
723.4	-85.6639
723.5	-85.664
723.6	-85.664
723.7	-85.6641
723.8	-85.6642
723.9	-85.6642
724	-85.6643
724.1	-85.6643
724.2	-85.6644
724.3	-85.6644
724.4	-85.6645
724.5	-85.6645
724.6	-85.6646
724.7	-85.6646
724.8	-85.6647
724.9	-85.6647
725	-85.6648
725.1	-85.6649
725.2	-85.6649
725.3	-85.665
725.4	-85.665
725.5	-85.6651
725.6	-85.6651
725.7	-85.6652
725.8	-85.6652
725.9	-85.6653
726	-85.6653
726.1	-85.6654
726.2	-85.6654
726.3	-85.6655
726.4	-85.6656
726.5	-85.6656
726.6	-85.6657
726.7	-85.6657
726.8	-85.6658
726.9	-85.6658
727	-85.6659
727.1	-85.6659
727.2	-85.666
727.3	-85.666
727.4	-85.6661
727.5	-85.6661
727.6	-85.6662
727.7	-85.6662
727.8	-85.6663
727.9	-85.6663
728	-85.6664
728.1	-85.6665
728.2	-85.6665
728.3	-85.6666
728.4	-85.6666
728.5	-85.6667
728.6	-85.6667
728.7	-85.6668
728.8	-85.6668
728.9	-85.6669
729	-85.6669
729.1	-85.667
729.2	-85.667
729.3	-85.6671
729.4	-85.6671
729.5	-85.6672
729.6	-85.6672
729.7	-85.6673
729.8	-85.6674
729.9	-85.6674
730	-85.6675
730.1	-85.6675
730.2	-85.6676
730.3	-85.6676
730.4	-85.6677
730.5	-85.6677
730.6	-85.6678
730.7	-85.6678
730.8	-85.6679
730.9	-85.6679
731	-85.668
731.1	-85.668
731.2	-85.6681
731.3	-85.6681
731.4	-85.6682
731.5	-85.6682
731.6	-85.6683
731.7	-85.6683
731.8	-85.6684
731.9	-85.6685
732	-85.6685
732.1	-85.6686
732.2	-85.6686
732.3	-85.6687
732.4	-85.6687
732.5	-85.6688
732.6	-85.6688
732.7	-85.6689
732.8	-85.6689
732.9	-85.669
733	-85.669
733.1	-85.6691
733.2	-85.6691
733.3	-85.6692
733.4	-85.6692
733.5	-85.6693
733.6	-85.6693
733.7	-85.6694
733.8	-85.6694
733.9	-85.6695
734	-85.6695
734.1	-85.6696
734.2	-85.6696
734.3	-85.6697
734.4	-85.6697
734.5	-85.6698
734.6	-85.6698
734.7	-85.6699
734.8	-85.67
734.9	-85.67
735	-85.6701
735.1	-85.6701
735.2	-85.6702
735.3	-85.6702
735.4	-85.6703
735.5	-85.6703
735.6	-85.6704
735.7	-85.6704
735.8	-85.6705
735.9	-85.6705
736	-85.6706
736.1	-85.6706
736.2	-85.6707
736.3	-85.6707
736.4	-85.6708
736.5	-85.6708
736.6	-85.6709
736.7	-85.6709
736.8	-85.671
736.9	-85.671
737	-85.6711
737.1	-85.6711
737.2	-85.6712
737.3	-85.6712
737.4	-85.6713
737.5	-85.6713
737.6	-85.6714
737.7	-85.6714
737.8	-85.6715
737.9	-85.6715
738	-85.6716
738.1	-85.6716
738.2	-85.6717
738.3	-85.6717
738.4	-85.6718
738.5	-85.6718
738.6	-85.6719
738.7	-85.6719
738.8	-85.672
738.9	-85.672
739	-85.6721
739.1	-85.6721
739.2	-85.6722
739.3	-85.6722
739.4	-85.6723
739.5	-85.6723
739.6	-85.6724
739.7	-85.6724
739.8	-85.6725
739.9	-85.6725
740	-85.6726
740.1	-85.6726
740.2	-85.6727
740.3	-85.6727
740.4	-85.6728
740.5	-85.6728
740.6	-85.6729
740.7	-85.6729
740.8	-85.673
740.9	-85.673
741	-85.6731
741.1	-85.6731
741.2	-85.6732
741.3	-85.6732
741.4	-85.6733
741.5	-85.6733
741.6	-85.6734
741.7	-85.6734
741.8	-85.6735
741.9	-85.6735
742	-85.6736
742.1	-85.6736
742.2	-85.6737
742.3	-85.6737
742.4	-85.6738
742.5	-85.6738
742.6	-85.6739
742.7	-85.6739
742.8	-85.674
742.9	-85.674
743	-85.6741
743.1	-85.6741
743.2	-85.6742
743.3	-85.6742
743.4	-85.6743
743.5	-85.6743
743.6	-85.6744
743.7	-85.6744
743.8	-85.6745
743.9	-85.6745
744	-85.6746
744.1	-85.6746
744.2	-85.6747
744.3	-85.6747
744.4	-85.6748
744.5	-85.6748
744.6	-85.6749
744.7	-85.6749
744.8	-85.675
744.9	-85.675
745	-85.6751
745.1	-85.6751
745.2	-85.6752
745.3	-85.6752
745.4	-85.6753
745.5	-85.6753
745.6	-85.6754
745.7	-85.6754
745.8	-85.6755
745.9	-85.6755
746	-85.6756
746.1	-85.6756
746.2	-85.6757
746.3	-85.6757
746.4	-85.6758
746.5	-85.6758
746.6	-85.6759
746.7	-85.6759
746.8	-85.676
746.9	-85.676
747	-85.6761
747.1	-85.6761
747.2	-85.6762
747.3	-85.6762
747.4	-85.6763
747.5	-85.6763
747.6	-85.6764
747.7	-85.6764
747.8	-85.6764
747.9	-85.6765
748	-85.6765
748.1	-85.6766
748.2	-85.6766
748.3	-85.6767
748.4	-85.6767
748.5	-85.6768
748.6	-85.6768
748.7	-85.6769
748.8	-85.6769
748.9	-85.677
749	-85.677
749.1	-85.6771
749.2	-85.6771
749.3	-85.6772
749.4	-85.6772
749.5	-85.6773
749.6	-85.6773
749.7	-85.6774
749.8	-85.6774
749.9	-85.6775
750	-85.6775
750.1	-85.6776
750.2	-85.6776
750.3	-85.6777
750.4	-85.6777
750.5	-85.6778
750.6	-85.6778
750.7	-85.6778
750.8	-85.6779
750.9	-85.6779
751	-85.678
751.1	-85.678
751.2	-85.6781
751.3	-85.6781
751.4	-85.6782
751.5	-85.6782
751.6	-85.6783
751.7	-85.6783
751.8	-85.6784
751.9	-85.6784
752	-85.6785
752.1	-85.6785
752.2	-85.6786
752.3	-85.6786
752.4	-85.6787
752.5	-85.6787
752.6	-85.6788
752.7	-85.6788
752.8	-85.6788
752.9	-85.6789
753	-85.6789
753.1	-85.679
753.2	-85.679
753.3	-85.6791
753.4	-85.6791
753.5	-85.6792
753.6	-85.6792
753.7	-85.6793
753.8	-85.6793
753.9	-85.6794
754	-85.6794
754.1	-85.6795
754.2	-85.6795
754.3	-85.6796
754.4	-85.6796
754.5	-85.6797
754.6	-85.6797
754.7	-85.6797
754.8	-85.6798
754.9	-85.6798
755	-85.6799
755.1	-85.6799
755.2	-85.68
755.3	-85.68
755.4	-85.6801
755.5	-85.6801
755.6	-85.6802
755.7	-85.6802
755.8	-85.6803
755.9	-85.6803
756	-85.6804
756.1	-85.6804
756.2	-85.6805
756.3	-85.6805
756.4	-85.6805
756.5	-85.6806
756.6	-85.6806
756.7	-85.6807
756.8	-85.6807
756.9	-85.6808
757	-85.6808
757.1	-85.6809
757.2	-85.6809
757.3	-85.681
757.4	-85.681
757.5	-85.6811
757.6	-85.6811
757.7	-85.6812
757.8	-85.6812
757.9	-85.6812
758	-85.6813
758.1	-85.6813
758.2	-85.6814
758.3	-85.6814
758.4	-85.6815
758.5	-85.6815
758.6	-85.6816
758.7	-85.6816
758.8	-85.6817
758.9	-85.6817
759	-85.6818
759.1	-85.6818
759.2	-85.6818
759.3	-85.6819
759.4	-85.6819
759.5	-85.682
759.6	-85.682
759.7	-85.6821
759.8	-85.6821
759.9	-85.6822
760	-85.6822
760.1	-85.6823
760.2	-85.6823
760.3	-85.6824
760.4	-85.6824
760.5	-85.6824
760.6	-85.6825
760.7	-85.6825
760.8	-85.6826
760.9	-85.6826
761	-85.6827
761.1	-85.6827
761.2	-85.6828
761.3	-85.6828
761.4	-85.6829
761.5	-85.6829
761.6	-85.6829
761.7	-85.683
761.8	-85.683
761.9	-85.6831
762	-85.6831
762.1	-85.6832
762.2	-85.6832
762.3	-85.6833
762.4	-85.6833
762.5	-85.6834
762.6	-85.6834
762.7	-85.6834
762.8	-85.6835
762.9	-85.6835
763	-85.6836
763.1	-85.6836
763.2	-85.6837
763.3	-85.6837
763.4	-85.6838
763.5	-85.6838
763.6	-85.6839
763.7	-85.6839
763.8	-85.6839
763.9	-85.684
764	-85.684
764.1	-85.6841
764.2	-85.6841
764.3	-85.6842
764.4	-85.6842
764.5	-85.6843
764.6	-85.6843
764.7	-85.6844
764.8	-85.6844
764.9	-85.6844
765	-85.6845
765.1	-85.6845
765.2	-85.6846
765.3	-85.6846
765.4	-85.6847
765.5	-85.6847
765.6	-85.6848
765.7	-85.6848
765.8	-85.6848
765.9	-85.6849
766	-85.6849
766.1	-85.685
766.2	-85.685
766.3	-85.6851
766.4	-85.6851
766.5	-85.6852
766.6	-85.6852
766.7	-85.6853
766.8	-85.6853
766.9	-85.6853
767	-85.6854
767.1	-85.6854
767.2	-85.6855
767.3	-85.6855
767.4	-85.6856
767.5	-85.6856
767.6	-85.6857
767.7	-85.6857
767.8	-85.6857
767.9	-85.6858
768	-85.6858
768.1	-85.6859
768.2	-85.6859
768.3	-85.686
768.4	-85.686
768.5	-85.6861
768.6	-85.6861
768.7	-85.6861
768.8	-85.6862
768.9	-85.6862
769	-85.6863
769.1	-85.6863
769.2	-85.6864
769.3	-85.6864
769.4	-85.6865
769.5	-85.6865
769.6	-85.6865
769.7	-85.6866
769.8	-85.6866
769.9	-85.6867
770	-85.6867
770.1	-85.6868
770.2	-85.6868
770.3	-85.6868
770.4	-85.6869
770.5	-85.6869
770.6	-85.687
770.7	-85.687
770.8	-85.6871
770.9	-85.6871
771	-85.6872
771.1	-85.6872
771.2	-85.6872
771.3	-85.6873
771.4	-85.6873
771.5	-85.6874
771.6	-85.6874
771.7	-85.6875
771.8	-85.6875
771.9	-85.6875
772	-85.6876
772.1	-85.6876
772.2	-85.6877
772.3	-85.6877
772.4	-85.6878
772.5	-85.6878
772.6	-85.6879
772.7	-85.6879
772.8	-85.6879
772.9	-85.688
773	-85.688
773.1	-85.6881
773.2	-85.6881
773.3	-85.6882
773.4	-85.6882
773.5	-85.6882
773.6	-85.6883
773.7	-85.6883
773.8	-85.6884
773.9	-85.6884
774	-85.6885
774.1	-85.6885
774.2	-85.6885
774.3	-85.6886
774.4	-85.6886
774.5	-85.6887
774.6	-85.6887
774.7	-85.6888
774.8	-85.6888
774.9	-85.6889
775	-85.6889
775.1	-85.6889
775.2	-85.689
775.3	-85.689
775.4	-85.6891
775.5	-85.6891
775.6	-85.6892
775.7	-85.6892
775.8	-85.6892
775.9	-85.6893
776	-85.6893
776.1	-85.6894
776.2	-85.6894
776.3	-85.6895
776.4	-85.6895
776.5	-85.6895
776.6	-85.6896
776.7	-85.6896
776.8	-85.6897
776.9	-85.6897
777	-85.6898
777.1	-85.6898
777.2	-85.6898
777.3	-85.6899
777.4	-85.6899
777.5	-85.69
777.6	-85.69
777.7	-85.6901
777.8	-85.6901
777.9	-85.6901
778	-85.6902
778.1	-85.6902
778.2	-85.6903
778.3	-85.6903
778.4	-85.6903
778.5	-85.6904
778.6	-85.6904
778.7	-85.6905
778.8	-85.6905
778.9	-85.6906
779	-85.6906
779.1	-85.6906
779.2	-85.6907
779.3	-85.6907
779.4	-85.6908
779.5	-85.6908
779.6	-85.6909
779.7	-85.6909
779.8	-85.6909
779.9	-85.691
780	-85.691
780.1	-85.6911
780.2	-85.6911
780.3	-85.6912
780.4	-85.6912
780.5	-85.6912
780.6	-85.6913
780.7	-85.6913
780.8	-85.6914
780.9	-85.6914
781	-85.6914
781.1	-85.6915
781.2	-85.6915
781.3	-85.6916
781.4	-85.6916
781.5	-85.6917
781.6	-85.6917
781.7	-85.6917
781.8	-85.6918
781.9	-85.6918
782	-85.6919
782.1	-85.6919
782.2	-85.6919
782.3	-85.692
782.4	-85.692
782.5	-85.6921
782.6	-85.6921
782.7	-85.6922
782.8	-85.6922
782.9	-85.6922
783	-85.6923
783.1	-85.6923
783.2	-85.6924
783.3	-85.6924
783.4	-85.6924
783.5	-85.6925
783.6	-85.6925
783.7	-85.6926
783.8	-85.6926
783.9	-85.6927
784	-85.6927
784.1	-85.6927
784.2	-85.6928
784.3	-85.6928
784.4	-85.6929
784.5	-85.6929
784.6	-85.6929
784.7	-85.693
784.8	-85.693
784.9	-85.6931
785	-85.6931
785.1	-85.6932
785.2	-85.6932
785.3	-85.6932
785.4	-85.6933
785.5	-85.6933
785.6	-85.6934
785.7	-85.6934
785.8	-85.6934
785.9	-85.6935
786	-85.6935
786.1	-85.6936
786.2	-85.6936
786.3	-85.6936
786.4	-85.6937
786.5	-85.6937
786.6	-85.6938
786.7	-85.6938
786.8	-85.6938
786.9	-85.6939
787	-85.6939
787.1	-85.694
787.2	-85.694
787.3	-85.6941
787.4	-85.6941
787.5	-85.6941
787.6	-85.6942
787.7	-85.6942
787.8	-85.6943
787.9	-85.6943
788	-85.6943
788.1	-85.6944
788.2	-85.6944
788.3	-85.6945
788.4	-85.6945
788.5	-85.6945
788.6	-85.6946
788.7	-85.6946
788.8	-85.6947
788.9	-85.6947
789	-85.6947
789.1	-85.6948
789.2	-85.6948
789.3	-85.6949
789.4	-85.6949
789.5	-85.6949
789.6	-85.695
789.7	-85.695
789.8	-85.6951
789.9	-85.6951
790	-85.6952
790.1	-85.6952
790.2	-85.6952
790.3	-85.6953
790.4	-85.6953
790.5	-85.6954
790.6	-85.6954
790.7	-85.6954
790.8	-85.6955
790.9	-85.6955
791	-85.6956
791.1	-85.6956
791.2	-85.6956
791.3	-85.6957
791.4	-85.6957
791.5	-85.6958
791.6	-85.6958
791.7	-85.6958
791.8	-85.6959
791.9	-85.6959
792	-85.696
792.1	-85.696
792.2	-85.696
792.3	-85.6961
792.4	-85.6961
792.5	-85.6962
792.6	-85.6962
792.7	-85.6962
792.8	-85.6963
792.9	-85.6963
793	-85.6964
793.1	-85.6964
793.2	-85.6964
793.3	-85.6965
793.4	-85.6965
793.5	-85.6966
793.6	-85.6966
793.7	-85.6966
793.8	-85.6967
793.9	-85.6967
794	-85.6968
794.1	-85.6968
794.2	-85.6968
794.3	-85.6969
794.4	-85.6969
794.5	-85.6969
794.6	-85.697
794.7	-85.697
794.8	-85.6971
794.9	-85.6971
795	-85.6971
795.1	-85.6972
795.2	-85.6972
795.3	-85.6973
795.4	-85.6973
795.5	-85.6973
795.6	-85.6974
795.7	-85.6974
795.8	-85.6975
795.9	-85.6975
796	-85.6975
796.1	-85.6976
796.2	-85.6976
796.3	-85.6977
796.4	-85.6977
796.5	-85.6977
796.6	-85.6978
796.7	-85.6978
796.8	-85.6979
796.9	-85.6979
797	-85.6979
797.1	-85.698
797.2	-85.698
797.3	-85.698
797.4	-85.6981
797.5	-85.6981
797.6	-85.6982
797.7	-85.6982
797.8	-85.6982
797.9	-85.6983
798	-85.6983
798.1	-85.6984
798.2	-85.6984
798.3	-85.6984
798.4	-85.6985
798.5	-85.6985
798.6	-85.6986
798.7	-85.6986
798.8	-85.6986
798.9	-85.6987
799	-85.6987
799.1	-85.6988
799.2	-85.6988
799.3	-85.6988
799.4	-85.6989
799.5	-85.6989
799.6	-85.6989
799.7	-85.699
799.8	-85.699
799.9	-85.6991
800	-85.6991
800.1	-85.6991
800.2	-85.6992
800.3	-85.6992
800.4	-85.6993
800.5	-85.6993
800.6	-85.6993
800.7	-85.6994
800.8	-85.6994
800.9	-85.6994
801	-85.6995
801.1	-85.6995
801.2	-85.6996
801.3	-85.6996
801.4	-85.6996
801.5	-85.6997
801.6	-85.6997
801.7	-85.6998
801.8	-85.6998
801.9	-85.6998
802	-85.6999
802.1	-85.6999
802.2	-85.6999
802.3	-85.7
802.4	-85.7
802.5	-85.7001
802.6	-85.7001
802.7	-85.7001
802.8	-85.7002
802.9	-85.7002
803	-85.7003
803.1	-85.7003
803.2	-85.7003
803.3	-85.7004
803.4	-85.7004
803.5	-85.7004
803.6	-85.7005
803.7	-85.7005
803.8	-85.7006
803.9	-85.7006
804	-85.7006
804.1	-85.7007
804.2	-85.7007
804.3	-85.7007
804.4	-85.7008
804.5	-85.7008
804.6	-85.7009
804.7	-85.7009
804.8	-85.7009
804.9	-85.701
805	-85.701
805.1	-85.701
805.2	-85.7011
805.3	-85.7011
805.4	-85.7012
805.5	-85.7012
805.6	-85.7012
805.7	-85.7013
805.8	-85.7013
805.9	-85.7013
806	-85.7014
806.1	-85.7014
806.2	-85.7015
806.3	-85.7015
806.4	-85.7015
806.5	-85.7016
806.6	-85.7016
806.7	-85.7017
806.8	-85.7017
806.9	-85.7017
807	-85.7018
807.1	-85.7018
807.2	-85.7018
807.3	-85.7019
807.4	-85.7019
807.5	-85.702
807.6	-85.702
807.7	-85.702
807.8	-85.7021
807.9	-85.7021
808	-85.7021
808.1	-85.7022
808.2	-85.7022
808.3	-85.7022
808.4	-85.7023
808.5	-85.7023
808.6	-85.7024
808.7	-85.7024
808.8	-85.7024
808.9	-85.7025
809	-85.7025
809.1	-85.7025
809.2	-85.7026
809.3	-85.7026
809.4	-85.7027
809.5	-85.7027
809.6	-85.7027
809.7	-85.7028
809.8	-85.7028
809.9	-85.7028
810	-85.7029
810.1	-85.7029
810.2	-85.703
810.3	-85.703
810.4	-85.703
810.5	-85.7031
810.6	-85.7031
810.7	-85.7031
810.8	-85.7032
810.9	-85.7032
811	-85.7032
811.1	-85.7033
811.2	-85.7033
811.3	-85.7034
811.4	-85.7034
811.5	-85.7034
811.6	-85.7035
811.7	-85.7035
811.8	-85.7035
811.9	-85.7036
812	-85.7036
812.1	-85.7037
812.2	-85.7037
812.3	-85.7037
812.4	-85.7038
812.5	-85.7038
812.6	-85.7038
812.7	-85.7039
812.8	-85.7039
812.9	-85.7039
813	-85.704
813.1	-85.704
813.2	-85.7041
813.3	-85.7041
813.4	-85.7041
813.5	-85.7042
813.6	-85.7042
813.7	-85.7042
813.8	-85.7043
813.9	-85.7043
814	-85.7043
814.1	-85.7044
814.2	-85.7044
814.3	-85.7045
814.4	-85.7045
814.5	-85.7045
814.6	-85.7046
814.7	-85.7046
814.8	-85.7046
814.9	-85.7047
815	-85.7047
815.1	-85.7047
815.2	-85.7048
815.3	-85.7048
815.4	-85.7049
815.5	-85.7049
815.6	-85.7049
815.7	-85.705
815.8	-85.705
815.9	-85.705
816	-85.7051
816.1	-85.7051
816.2	-85.7051
816.3	-85.7052
816.4	-85.7052
816.5	-85.7053
816.6	-85.7053
816.7	-85.7053
816.8	-85.7054
816.9	-85.7054
817	-85.7054
817.1	-85.7055
817.2	-85.7055
817.3	-85.7055
817.4	-85.7056
817.5	-85.7056
817.6	-85.7056
817.7	-85.7057
817.8	-85.7057
817.9	-85.7058
818	-85.7058
818.1	-85.7058
818.2	-85.7059
818.3	-85.7059
818.4	-85.7059
818.5	-85.706
818.6	-85.706
818.7	-85.706
818.8	-85.7061
818.9	-85.7061
819	-85.7061
819.1	-85.7062
819.2	-85.7062
819.3	-85.7063
819.4	-85.7063
819.5	-85.7063
819.6	-85.7064
819.7	-85.7064
819.8	-85.7064
819.9	-85.7065
820	-85.7065
820.1	-85.7065
820.2	-85.7066
820.3	-85.7066
820.4	-85.7066
820.5	-85.7067
820.6	-85.7067
820.7	-85.7067
820.8	-85.7068
820.9	-85.7068
821	-85.7069
821.1	-85.7069
821.2	-85.7069
821.3	-85.707
821.4	-85.707
821.5	-85.707
821.6	-85.7071
821.7	-85.7071
821.8	-85.7071
821.9	-85.7072
822	-85.7072
822.1	-85.7072
822.2	-85.7073
822.3	-85.7073
822.4	-85.7073
822.5	-85.7074
822.6	-85.7074
822.7	-85.7075
822.8	-85.7075
822.9	-85.7075
823	-85.7076
823.1	-85.7076
823.2	-85.7076
823.3	-85.7077
823.4	-85.7077
823.5	-85.7077
823.6	-85.7078
823.7	-85.7078
823.8	-85.7078
823.9	-85.7079
824	-85.7079
824.1	-85.7079
824.2	-85.708
824.3	-85.708
824.4	-85.708
824.5	-85.7081
824.6	-85.7081
824.7	-85.7081
824.8	-85.7082
824.9	-85.7082
825	-85.7083
825.1	-85.7083
825.2	-85.7083
825.3	-85.7084
825.4	-85.7084
825.5	-85.7084
825.6	-85.7085
825.7	-85.7085
825.8	-85.7085
825.9	-85.7086
826	-85.7086
826.1	-85.7086
826.2	-85.7087
826.3	-85.7087
826.4	-85.7087
826.5	-85.7088
826.6	-85.7088
826.7	-85.7088
826.8	-85.7089
826.9	-85.7089
827	-85.7089
827.1	-85.709
827.2	-85.709
827.3	-85.709
827.4	-85.7091
827.5	-85.7091
827.6	-85.7091
827.7	-85.7092
827.8	-85.7092
827.9	-85.7093
828	-85.7093
828.1	-85.7093
828.2	-85.7094
828.3	-85.7094
828.4	-85.7094
828.5	-85.7095
828.6	-85.7095
828.7	-85.7095
828.8	-85.7096
828.9	-85.7096
829	-85.7096
829.1	-85.7097
829.2	-85.7097
829.3	-85.7097
829.4	-85.7098
829.5	-85.7098
829.6	-85.7098
829.7	-85.7099
829.8	-85.7099
829.9	-85.7099
830	-85.71
830.1	-85.71
830.2	-85.71
830.3	-85.7101
830.4	-85.7101
830.5	-85.7101
830.6	-85.7102
830.7	-85.7102
830.8	-85.7102
830.9	-85.7103
831	-85.7103
831.1	-85.7103
831.2	-85.7104
831.3	-85.7104
831.4	-85.7104
831.5	-85.7105
831.6	-85.7105
831.7	-85.7105
831.8	-85.7106
831.9	-85.7106
832	-85.7106
832.1	-85.7107
832.2	-85.7107
832.3	-85.7107
832.4	-85.7108
832.5	-85.7108
832.6	-85.7108
832.7	-85.7109
832.8	-85.7109
832.9	-85.7109
833	-85.711
833.1	-85.711
833.2	-85.711
833.3	-85.7111
833.4	-85.7111
833.5	-85.7111
833.6	-85.7112
833.7	-85.7112
833.8	-85.7112
833.9	-85.7113
834	-85.7113
834.1	-85.7113
834.2	-85.7114
834.3	-85.7114
834.4	-85.7114
834.5	-85.7115
834.6	-85.7115
834.7	-85.7115
834.8	-85.7116
834.9	-85.7116
835	-85.7116
835.1	-85.7117
835.2	-85.7117
835.3	-85.7117
835.4	-85.7118
835.5	-85.7118
835.6	-85.7118
835.7	-85.7119
835.8	-85.7119
835.9	-85.7119
836	-85.712
836.1	-85.712
836.2	-85.712
836.3	-85.7121
836.4	-85.7121
836.5	-85.7121
836.6	-85.7122
836.7	-85.7122
836.8	-85.7122
836.9	-85.7123
837	-85.7123
837.1	-85.7123
837.2	-85.7124
837.3	-85.7124
837.4	-85.7124
837.5	-85.7125
837.6	-85.7125
837.7	-85.7125
837.8	-85.7126
837.9	-85.7126
838	-85.7126
838.1	-85.7127
838.2	-85.7127
838.3	-85.7127
838.4	-85.7128
838.5	-85.7128
838.6	-85.7128
838.7	-85.7129
838.8	-85.7129
838.9	-85.7129
839	-85.713
839.1	-85.713
839.2	-85.713
839.3	-85.7131
839.4	-85.7131
839.5	-85.7131
839.6	-85.7132
839.7	-85.7132
839.8	-85.7132
839.9	-85.7133
840	-85.7133
840.1	-85.7133
840.2	-85.7134
840.3	-85.7134
840.4	-85.7134
840.5	-85.7134
840.6	-85.7135
840.7	-85.7135
840.8	-85.7135
840.9	-85.7136
841	-85.7136
841.1	-85.7136
841.2	-85.7137
841.3	-85.7137
841.4	-85.7137
841.5	-85.7138
841.6	-85.7138
841.7	-85.7138
841.8	-85.7139
841.9	-85.7139
842	-85.7139
842.1	-85.714
842.2	-85.714
842.3	-85.714
842.4	-85.7141
842.5	-85.7141
842.6	-85.7141
842.7	-85.7142
842.8	-85.7142
842.9	-85.7142
843	-85.7143
843.1	-85.7143
843.2	-85.7143
843.3	-85.7144
843.4	-85.7144
843.5	-85.7144
843.6	-85.7144
843.7	-85.7145
843.8	-85.7145
843.9	-85.7145
844	-85.7146
844.1	-85.7146
844.2	-85.7146
844.3	-85.7147
844.4	-85.7147
844.5	-85.7147
844.6	-85.7148
844.7	-85.7148
844.8	-85.7148
844.9	-85.7149
845	-85.7149
845.1	-85.7149
845.2	-85.715
845.3	-85.715
845.4	-85.715
845.5	-85.7151
845.6	-85.7151
845.7	-85.7151
845.8	-85.7151
845.9	-85.7152
846	-85.7152
846.1	-85.7152
846.2	-85.7153
846.3	-85.7153
846.4	-85.7153
846.5	-85.7154
846.6	-85.7154
846.7	-85.7154
846.8	-85.7155
846.9	-85.7155
847	-85.7155
847.1	-85.7156
847.2	-85.7156
847.3	-85.7156
847.4	-85.7157
847.5	-85.7157
847.6	-85.7157
847.7	-85.7157
847.8	-85.7158
847.9	-85.7158
848	-85.7158
848.1	-85.7159
848.2	-85.7159
848.3	-85.7159
848.4	-85.716
848.5	-85.716
848.6	-85.716
848.7	-85.7161
848.8	-85.7161
848.9	-85.7161
849	-85.7162
849.1	-85.7162
849.2	-85.7162
849.3	-85.7162
849.4	-85.7163
849.5	-85.7163
849.6	-85.7163
849.7	-85.7164
849.8	-85.7164
849.9	-85.7164
850	-85.7165
850.1	-85.7165
850.2	-85.7165
850.3	-85.7166
850.4	-85.7166
850.5	-85.7166
850.6	-85.7167
850.7	-85.7167
850.8	-85.7167
850.9	-85.7167
851	-85.7168
851.1	-85.7168
851.2	-85.7168
851.3	-85.7169
851.4	-85.7169
851.5	-85.7169
851.6	-85.717
851.7	-85.717
851.8	-85.717
851.9	-85.7171
852	-85.7171
852.1	-85.7171
852.2	-85.7171
852.3	-85.7172
852.4	-85.7172
852.5	-85.7172
852.6	-85.7173
852.7	-85.7173
852.8	-85.7173
852.9	-85.7174
853	-85.7174
853.1	-85.7174
853.2	-85.7175
853.3	-85.7175
853.4	-85.7175
853.5	-85.7175
853.6	-85.7176
853.7	-85.7176
853.8	-85.7176
853.9	-85.7177
854	-85.7177
854.1	-85.7177
854.2	-85.7178
854.3	-85.7178
854.4	-85.7178
854.5	-85.7179
854.6	-85.7179
854.7	-85.7179
854.8	-85.7179
854.9	-85.718
855	-85.718
855.1	-85.718
855.2	-85.7181
855.3	-85.7181
855.4	-85.7181
855.5	-85.7182
855.6	-85.7182
855.7	-85.7182
855.8	-85.7182
855.9	-85.7183
856	-85.7183
856.1	-85.7183
856.2	-85.7184
856.3	-85.7184
856.4	-85.7184
856.5	-85.7185
856.6	-85.7185
856.7	-85.7185
856.8	-85.7186
856.9	-85.7186
857	-85.7186
857.1	-85.7186
857.2	-85.7187
857.3	-85.7187
857.4	-85.7187
857.5	-85.7188
857.6	-85.7188
857.7	-85.7188
857.8	-85.7189
857.9	-85.7189
858	-85.7189
858.1	-85.7189
858.2	-85.719
858.3	-85.719
858.4	-85.719
858.5	-85.7191
858.6	-85.7191
858.7	-85.7191
858.8	-85.7192
858.9	-85.7192
859	-85.7192
859.1	-85.7192
859.2	-85.7193
859.3	-85.7193
859.4	-85.7193
859.5	-85.7194
859.6	-85.7194
859.7	-85.7194
859.8	-85.7195
859.9	-85.7195
860	-85.7195
860.1	-85.7195
860.2	-85.7196
860.3	-85.7196
860.4	-85.7196
860.5	-85.7197
860.6	-85.7197
860.7	-85.7197
860.8	-85.7197
860.9	-85.7198
861	-85.7198
861.1	-85.7198
861.2	-85.7199
861.3	-85.7199
861.4	-85.7199
861.5	-85.72
861.6	-85.72
861.7	-85.72
861.8	-85.72
861.9	-85.7201
862	-85.7201
862.1	-85.7201
862.2	-85.7202
862.3	-85.7202
862.4	-85.7202
862.5	-85.7203
862.6	-85.7203
862.7	-85.7203
862.8	-85.7203
862.9	-85.7204
863	-85.7204
863.1	-85.7204
863.2	-85.7205
863.3	-85.7205
863.4	-85.7205
863.5	-85.7205
863.6	-85.7206
863.7	-85.7206
863.8	-85.7206
863.9	-85.7207
864	-85.7207
864.1	-85.7207
864.2	-85.7208
864.3	-85.7208
864.4	-85.7208
864.5	-85.7208
864.6	-85.7209
864.7	-85.7209
864.8	-85.7209
864.9	-85.721
865	-85.721
865.1	-85.721
865.2	-85.721
865.3	-85.7211
865.4	-85.7211
865.5	-85.7211
865.6	-85.7212
865.7	-85.7212
865.8	-85.7212
865.9	-85.7212
866	-85.7213
866.1	-85.7213
866.2	-85.7213
866.3	-85.7214
866.4	-85.7214
866.5	-85.7214
866.6	-85.7215
866.7	-85.7215
866.8	-85.7215
866.9	-85.7215
867	-85.7216
867.1	-85.7216
867.2	-85.7216
867.3	-85.7217
867.4	-85.7217
867.5	-85.7217
867.6	-85.7217
867.7	-85.7218
867.8	-85.7218
867.9	-85.7218
868	-85.7219
868.1	-85.7219
868.2	-85.7219
868.3	-85.7219
868.4	-85.722
868.5	-85.722
868.6	-85.722
868.7	-85.7221
868.8	-85.7221
868.9	-85.7221
869	-85.7221
869.1	-85.7222
869.2	-85.7222
869.3	-85.7222
869.4	-85.7223
869.5	-85.7223
869.6	-85.7223
869.7	-85.7223
869.8	-85.7224
869.9	-85.7224
870	-85.7224
870.1	-85.7225
870.2	-85.7225
870.3	-85.7225
870.4	-85.7225
870.5	-85.7226
870.6	-85.7226
870.7	-85.7226
870.8	-85.7227
870.9	-85.7227
871	-85.7227
871.1	-85.7227
871.2	-85.7228
871.3	-85.7228
871.4	-85.7228
871.5	-85.7229
871.6	-85.7229
871.7	-85.7229
871.8	-85.7229
871.9	-85.723
872	-85.723
872.1	-85.723
872.2	-85.7231
872.3	-85.7231
872.4	-85.7231
872.5	-85.7231
872.6	-85.7232
872.7	-85.7232
872.8	-85.7232
872.9	-85.7233
873	-85.7233
873.1	-85.7233
873.2	-85.7233
873.3	-85.7234
873.4	-85.7234
873.5	-85.7234
873.6	-85.7234
873.7	-85.7235
873.8	-85.7235
873.9	-85.7235
874	-85.7236
874.1	-85.7236
874.2	-85.7236
874.3	-85.7236
874.4	-85.7237
874.5	-85.7237
874.6	-85.7237
874.7	-85.7238
874.8	-85.7238
874.9	-85.7238
875	-85.7238
875.1	-85.7239
875.2	-85.7239
875.3	-85.7239
875.4	-85.724
875.5	-85.724
875.6	-85.724
875.7	-85.724
875.8	-85.7241
875.9	-85.7241
876	-85.7241
876.1	-85.7241
876.2	-85.7242
876.3	-85.7242
876.4	-85.7242
876.5	-85.7243
876.6	-85.7243
876.7	-85.7243
876.8	-85.7243
876.9	-85.7244
877	-85.7244
877.1	-85.7244
877.2	-85.7245
877.3	-85.7245
877.4	-85.7245
877.5	-85.7245
877.6	-85.7246
877.7	-85.7246
877.8	-85.7246
877.9	-85.7246
878	-85.7247
878.1	-85.7247
878.2	-85.7247
878.3	-85.7248
878.4	-85.7248
878.5	-85.7248
878.6	-85.7248
878.7	-85.7249
878.8	-85.7249
878.9	-85.7249
879	-85.7249
879.1	-85.725
879.2	-85.725
879.3	-85.725
879.4	-85.7251
879.5	-85.7251
879.6	-85.7251
879.7	-85.7251
879.8	-85.7252
879.9	-85.7252
880	-85.7252
880.1	-85.7252
880.2	-85.7253
880.3	-85.7253
880.4	-85.7253
880.5	-85.7254
880.6	-85.7254
880.7	-85.7254
880.8	-85.7254
880.9	-85.7255
881	-85.7255
881.1	-85.7255
881.2	-85.7255
881.3	-85.7256
881.4	-85.7256
881.5	-85.7256
881.6	-85.7257
881.7	-85.7257
881.8	-85.7257
881.9	-85.7257
882	-85.7258
882.1	-85.7258
882.2	-85.7258
882.3	-85.7258
882.4	-85.7259
882.5	-85.7259
882.6	-85.7259
882.7	-85.726
882.8	-85.726
882.9	-85.726
883	-85.726
883.1	-85.7261
883.2	-85.7261
883.3	-85.7261
883.4	-85.7261
883.5	-85.7262
883.6	-85.7262
883.7	-85.7262
883.8	-85.7263
883.9	-85.7263
884	-85.7263
884.1	-85.7263
884.2	-85.7264
884.3	-85.7264
884.4	-85.7264
884.5	-85.7264
884.6	-85.7265
884.7	-85.7265
884.8	-85.7265
884.9	-85.7265
885	-85.7266
885.1	-85.7266
885.2	-85.7266
885.3	-85.7267
885.4	-85.7267
885.5	-85.7267
885.6	-85.7267
885.7	-85.7268
885.8	-85.7268
885.9	-85.7268
886	-85.7268
886.1	-85.7269
886.2	-85.7269
886.3	-85.7269
886.4	-85.7269
886.5	-85.727
886.6	-85.727
886.7	-85.727
886.8	-85.7271
886.9	-85.7271
887	-85.7271
887.1	-85.7271
887.2	-85.7272
887.3	-85.7272
887.4	-85.7272
887.5	-85.7272
887.6	-85.7273
887.7	-85.7273
887.8	-85.7273
887.9	-85.7273
888	-85.7274
888.1	-85.7274
888.2	-85.7274
888.3	-85.7275
888.4	-85.7275
888.5	-85.7275
888.6	-85.7275
888.7	-85.7276
888.8	-85.7276
888.9	-85.7276
889	-85.7276
889.1	-85.7277
889.2	-85.7277
889.3	-85.7277
889.4	-85.7277
889.5	-85.7278
889.6	-85.7278
889.7	-85.7278
889.8	-85.7278
889.9	-85.7279
890	-85.7279
890.1	-85.7279
890.2	-85.728
890.3	-85.728
890.4	-85.728
890.5	-85.728
890.6	-85.7281
890.7	-85.7281
890.8	-85.7281
890.9	-85.7281
891	-85.7282
891.1	-85.7282
891.2	-85.7282
891.3	-85.7282
891.4	-85.7283
891.5	-85.7283
891.6	-85.7283
891.7	-85.7283
891.8	-85.7284
891.9	-85.7284
892	-85.7284
892.1	-85.7284
892.2	-85.7285
892.3	-85.7285
892.4	-85.7285
892.5	-85.7285
892.6	-85.7286
892.7	-85.7286
892.8	-85.7286
892.9	-85.7287
893	-85.7287
893.1	-85.7287
893.2	-85.7287
893.3	-85.7288
893.4	-85.7288
893.5	-85.7288
893.6	-85.7288
893.7	-85.7289
893.8	-85.7289
893.9	-85.7289
894	-85.7289
894.1	-85.729
894.2	-85.729
894.3	-85.729
894.4	-85.729
894.5	-85.7291
894.6	-85.7291
894.7	-85.7291
894.8	-85.7291
894.9	-85.7292
895	-85.7292
895.1	-85.7292
895.2	-85.7292
895.3	-85.7293
895.4	-85.7293
895.5	-85.7293
895.6	-85.7293
895.7	-85.7294
895.8	-85.7294
895.9	-85.7294
896	-85.7294
896.1	-85.7295
896.2	-85.7295
896.3	-85.7295
896.4	-85.7296
896.5	-85.7296
896.6	-85.7296
896.7	-85.7296
896.8	-85.7297
896.9	-85.7297
897	-85.7297
897.1	-85.7297
897.2	-85.7298
897.3	-85.7298
897.4	-85.7298
897.5	-85.7298
897.6	-85.7299
897.7	-85.7299
897.8	-85.7299
897.9	-85.7299
898	-85.73
898.1	-85.73
898.2	-85.73
898.3	-85.73
898.4	-85.7301
898.5	-85.7301
898.6	-85.7301
898.7	-85.7301
898.8	-85.7302
898.9	-85.7302
899	-85.7302
899.1	-85.7302
899.2	-85.7303
899.3	-85.7303
899.4	-85.7303
899.5	-85.7303
899.6	-85.7304
899.7	-85.7304
899.8	-85.7304
899.9	-85.7304
900	-85.7305
900.1	-85.7305
900.2	-85.7305
900.3	-85.7305
900.4	-85.7306
900.5	-85.7306
900.6	-85.7306
900.7	-85.7306
900.8	-85.7307
900.9	-85.7307
901	-85.7307
901.1	-85.7307
901.2	-85.7308
901.3	-85.7308
901.4	-85.7308
901.5	-85.7308
901.6	-85.7309
901.7	-85.7309
901.8	-85.7309
901.9	-85.7309
902	-85.731
902.1	-85.731
902.2	-85.731
902.3	-85.731
902.4	-85.7311
902.5	-85.7311
902.6	-85.7311
902.7	-85.7311
902.8	-85.7312
902.9	-85.7312
903	-85.7312
903.1	-85.7312
903.2	-85.7313
903.3	-85.7313
903.4	-85.7313
903.5	-85.7313
903.6	-85.7314
903.7	-85.7314
903.8	-85.7314
903.9	-85.7314
904	-85.7315
904.1	-85.7315
904.2	-85.7315
904.3	-85.7315
904.4	-85.7316
904.5	-85.7316
904.6	-85.7316
904.7	-85.7316
904.8	-85.7317
904.9	-85.7317
905	-85.7317
905.1	-85.7317
905.2	-85.7318
905.3	-85.7318
905.4	-85.7318
905.5	-85.7318
905.6	-85.7318
905.7	-85.7319
905.8	-85.7319
905.9	-85.7319
906	-85.7319
906.1	-85.732
906.2	-85.732
906.3	-85.732
906.4	-85.732
906.5	-85.7321
906.6	-85.7321
906.7	-85.7321
906.8	-85.7321
906.9	-85.7322
907	-85.7322
907.1	-85.7322
907.2	-85.7322
907.3	-85.7323
907.4	-85.7323
907.5	-85.7323
907.6	-85.7323
907.7	-85.7324
907.8	-85.7324
907.9	-85.7324
908	-85.7324
908.1	-85.7325
908.2	-85.7325
908.3	-85.7325
908.4	-85.7325
908.5	-85.7326
908.6	-85.7326
908.7	-85.7326
908.8	-85.7326
908.9	-85.7327
909	-85.7327
909.1	-85.7327
909.2	-85.7327
909.3	-85.7327
909.4	-85.7328
909.5	-85.7328
909.6	-85.7328
909.7	-85.7328
909.8	-85.7329
909.9	-85.7329
910	-85.7329
910.1	-85.7329
910.2	-85.733
910.3	-85.733
910.4	-85.733
910.5	-85.733
910.6	-85.7331
910.7	-85.7331
910.8	-85.7331
910.9	-85.7331
911	-85.7332
911.1	-85.7332
911.2	-85.7332
911.3	-85.7332
911.4	-85.7333
911.5	-85.7333
911.6	-85.7333
911.7	-85.7333
911.8	-85.7333
911.9	-85.7334
912	-85.7334
912.1	-85.7334
912.2	-85.7334
912.3	-85.7335
912.4	-85.7335
912.5	-85.7335
912.6	-85.7335
912.7	-85.7336
912.8	-85.7336
912.9	-85.7336
913	-85.7336
913.1	-85.7337
913.2	-85.7337
913.3	-85.7337
913.4	-85.7337
913.5	-85.7338
913.6	-85.7338
913.7	-85.7338
913.8	-85.7338
913.9	-85.7338
914	-85.7339
914.1	-85.7339
914.2	-85.7339
914.3	-85.7339
914.4	-85.734
914.5	-85.734
914.6	-85.734
914.7	-85.734
914.8	-85.7341
914.9	-85.7341
915	-85.7341
915.1	-85.7341
915.2	-85.7342
915.3	-85.7342
915.4	-85.7342
915.5	-85.7342
915.6	-85.7342
915.7	-85.7343
915.8	-85.7343
915.9	-85.7343
916	-85.7343
916.1	-85.7344
916.2	-85.7344
916.3	-85.7344
916.4	-85.7344
916.5	-85.7345
916.6	-85.7345
916.7	-85.7345
916.8	-85.7345
916.9	-85.7346
917	-85.7346
917.1	-85.7346
917.2	-85.7346
917.3	-85.7346
917.4	-85.7347
917.5	-85.7347
917.6	-85.7347
917.7	-85.7347
917.8	-85.7348
917.9	-85.7348
918	-85.7348
918.1	-85.7348
918.2	-85.7349
918.3	-85.7349
918.4	-85.7349
918.5	-85.7349
918.6	-85.7349
918.7	-85.735
918.8	-85.735
918.9	-85.735
919	-85.735
919.1	-85.7351
919.2	-85.7351
919.3	-85.7351
919.4	-85.7351
919.5	-85.7352
919.6	-85.7352
919.7	-85.7352
919.8	-85.7352
919.9	-85.7352
920	-85.7353
920.1	-85.7353
920.2	-85.7353
920.3	-85.7353
920.4	-85.7354
920.5	-85.7354
920.6	-85.7354
920.7	-85.7354
920.8	-85.7355
920.9	-85.7355
921	-85.7355
921.1	-85.7355
921.2	-85.7355
921.3	-85.7356
921.4	-85.7356
921.5	-85.7356
921.6	-85.7356
921.7	-85.7357
921.8	-85.7357
921.9	-85.7357
922	-85.7357
922.1	-85.7358
922.2	-85.7358
922.3	-85.7358
922.4	-85.7358
922.5	-85.7358
922.6	-85.7359
922.7	-85.7359
922.8	-85.7359
922.9	-85.7359
923	-85.736
923.1	-85.736
923.2	-85.736
923.3	-85.736
923.4	-85.736
923.5	-85.7361
923.6	-85.7361
923.7	-85.7361
923.8	-85.7361
923.9	-85.7362
924	-85.7362
924.1	-85.7362
924.2	-85.7362
924.3	-85.7363
924.4	-85.7363
924.5	-85.7363
924.6	-85.7363
924.7	-85.7363
924.8	-85.7364
924.9	-85.7364
925	-85.7364
925.1	-85.7364
925.2	-85.7365
925.3	-85.7365
925.4	-85.7365
925.5	-85.7365
925.6	-85.7365
925.7	-85.7366
925.8	-85.7366
925.9	-85.7366
926	-85.7366
926.1	-85.7367
926.2	-85.7367
926.3	-85.7367
926.4	-85.7367
926.5	-85.7367
926.6	-85.7368
926.7	-85.7368
926.8	-85.7368
926.9	-85.7368
927	-85.7369
927.1	-85.7369
927.2	-85.7369
927.3	-85.7369
927.4	-85.7369
927.5	-85.737
927.6	-85.737
927.7	-85.737
927.8	-85.737
927.9	-85.7371
928	-85.7371
928.1	-85.7371
928.2	-85.7371
928.3	-85.7371
928.4	-85.7372
928.5	-85.7372
928.6	-85.7372
928.7	-85.7372
928.8	-85.7373
928.9	-85.7373
929	-85.7373
929.1	-85.7373
929.2	-85.7373
929.3	-85.7374
929.4	-85.7374
929.5	-85.7374
929.6	-85.7374
929.7	-85.7375
929.8	-85.7375
929.9	-85.7375
930	-85.7375
930.1	-85.7375
930.2	-85.7376
930.3	-85.7376
930.4	-85.7376
930.5	-85.7376
930.6	-85.7377
930.7	-85.7377
930.8	-85.7377
930.9	-85.7377
931	-85.7377
931.1	-85.7378
931.2	-85.7378
931.3	-85.7378
931.4	-85.7378
931.5	-85.7379
931.6	-85.7379
931.7	-85.7379
931.8	-85.7379
931.9	-85.7379
932	-85.738
932.1	-85.738
932.2	-85.738
932.3	-85.738
932.4	-85.738
932.5	-85.7381
932.6	-85.7381
932.7	-85.7381
932.8	-85.7381
932.9	-85.7382
933	-85.7382
933.1	-85.7382
933.2	-85.7382
933.3	-85.7382
933.4	-85.7383
933.5	-85.7383
933.6	-85.7383
933.7	-85.7383
933.8	-85.7384
933.9	-85.7384
934	-85.7384
934.1	-85.7384
934.2	-85.7384
934.3	-85.7385
934.4	-85.7385
934.5	-85.7385
934.6	-85.7385
934.7	-85.7385
934.8	-85.7386
934.9	-85.7386
935	-85.7386
935.1	-85.7386
935.2	-85.7387
935.3	-85.7387
935.4	-85.7387
935.5	-85.7387
935.6	-85.7387
935.7	-85.7388
935.8	-85.7388
935.9	-85.7388
936	-85.7388
936.1	-85.7389
936.2	-85.7389
936.3	-85.7389
936.4	-85.7389
936.5	-85.7389
936.6	-85.739
936.7	-85.739
936.8	-85.739
936.9	-85.739
937	-85.739
937.1	-85.7391
937.2	-85.7391
937.3	-85.7391
937.4	-85.7391
937.5	-85.7392
937.6	-85.7392
937.7	-85.7392
937.8	-85.7392
937.9	-85.7392
938	-85.7393
938.1	-85.7393
938.2	-85.7393
938.3	-85.7393
938.4	-85.7393
938.5	-85.7394
938.6	-85.7394
938.7	-85.7394
938.8	-85.7394
938.9	-85.7394
939	-85.7395
939.1	-85.7395
939.2	-85.7395
939.3	-85.7395
939.4	-85.7396
939.5	-85.7396
939.6	-85.7396
939.7	-85.7396
939.8	-85.7396
939.9	-85.7397
940	-85.7397
940.1	-85.7397
940.2	-85.7397
940.3	-85.7397
940.4	-85.7398
940.5	-85.7398
940.6	-85.7398
940.7	-85.7398
940.8	-85.7398
940.9	-85.7399
941	-85.7399
941.1	-85.7399
941.2	-85.7399
941.3	-85.74
941.4	-85.74
941.5	-85.74
941.6	-85.74
941.7	-85.74
941.8	-85.7401
941.9	-85.7401
942	-85.7401
942.1	-85.7401
942.2	-85.7401
942.3	-85.7402
942.4	-85.7402
942.5	-85.7402
942.6	-85.7402
942.7	-85.7402
942.8	-85.7403
942.9	-85.7403
943	-85.7403
943.1	-85.7403
943.2	-85.7404
943.3	-85.7404
943.4	-85.7404
943.5	-85.7404
943.6	-85.7404
943.7	-85.7405
943.8	-85.7405
943.9	-85.7405
944	-85.7405
944.1	-85.7405
944.2	-85.7406
944.3	-85.7406
944.4	-85.7406
944.5	-85.7406
944.6	-85.7406
944.7	-85.7407
944.8	-85.7407
944.9	-85.7407
945	-85.7407
945.1	-85.7407
945.2	-85.7408
945.3	-85.7408
945.4	-85.7408
945.5	-85.7408
945.6	-85.7408
945.7	-85.7409
945.8	-85.7409
945.9	-85.7409
946	-85.7409
946.1	-85.741
946.2	-85.741
946.3	-85.741
946.4	-85.741
946.5	-85.741
946.6	-85.7411
946.7	-85.7411
946.8	-85.7411
946.9	-85.7411
947	-85.7411
947.1	-85.7412
947.2	-85.7412
947.3	-85.7412
947.4	-85.7412
947.5	-85.7412
947.6	-85.7413
947.7	-85.7413
947.8	-85.7413
947.9	-85.7413
948	-85.7413
948.1	-85.7414
948.2	-85.7414
948.3	-85.7414
948.4	-85.7414
948.5	-85.7414
948.6	-85.7415
948.7	-85.7415
948.8	-85.7415
948.9	-85.7415
949	-85.7415
949.1	-85.7416
949.2	-85.7416
949.3	-85.7416
949.4	-85.7416
949.5	-85.7416
949.6	-85.7417
949.7	-85.7417
949.8	-85.7417
949.9	-85.7417
950	-85.7417
950.1	-85.7418
950.2	-85.7418
950.3	-85.7418
950.4	-85.7418
950.5	-85.7418
950.6	-85.7419
950.7	-85.7419
950.8	-85.7419
950.9	-85.7419
951	-85.742
951.1	-85.742
951.2	-85.742
951.3	-85.742
951.4	-85.742
951.5	-85.7421
951.6	-85.7421
951.7	-85.7421
951.8	-85.7421
951.9	-85.7421
952	-85.7422
952.1	-85.7422
952.2	-85.7422
952.3	-85.7422
952.4	-85.7422
952.5	-85.7423
952.6	-85.7423
952.7	-85.7423
952.8	-85.7423
952.9	-85.7423
953	-85.7424
953.1	-85.7424
953.2	-85.7424
953.3	-85.7424
953.4	-85.7424
953.5	-85.7425
953.6	-85.7425
953.7	-85.7425
953.8	-85.7425
953.9	-85.7425
954	-85.7426
954.1	-85.7426
954.2	-85.7426
954.3	-85.7426
954.4	-85.7426
954.5	-85.7427
954.6	-85.7427
954.7	-85.7427
954.8	-85.7427
954.9	-85.7427
955	-85.7427
955.1	-85.7428
955.2	-85.7428
955.3	-85.7428
955.4	-85.7428
955.5	-85.7428
955.6	-85.7429
955.7	-85.7429
955.8	-85.7429
955.9	-85.7429
956	-85.7429
956.1	-85.743
956.2	-85.743
956.3	-85.743
956.4	-85.743
956.5	-85.743
956.6	-85.7431
956.7	-85.7431
956.8	-85.7431
956.9	-85.7431
957	-85.7431
957.1	-85.7432
957.2	-85.7432
957.3	-85.7432
957.4	-85.7432
957.5	-85.7432
957.6	-85.7433
957.7	-85.7433
957.8	-85.7433
957.9	-85.7433
958	-85.7433
958.1	-85.7434
958.2	-85.7434
958.3	-85.7434
958.4	-85.7434
958.5	-85.7434
958.6	-85.7435
958.7	-85.7435
958.8	-85.7435
958.9	-85.7435
959	-85.7435
959.1	-85.7436
959.2	-85.7436
959.3	-85.7436
959.4	-85.7436
959.5	-85.7436
959.6	-85.7437
959.7	-85.7437
959.8	-85.7437
959.9	-85.7437
960	-85.7437
960.1	-85.7437
960.2	-85.7438
960.3	-85.7438
960.4	-85.7438
960.5	-85.7438
960.6	-85.7438
960.7	-85.7439
960.8	-85.7439
960.9	-85.7439
961	-85.7439
961.1	-85.7439
961.2	-85.744
961.3	-85.744
961.4	-85.744
961.5	-85.744
961.6	-85.744
961.7	-85.7441
961.8	-85.7441
961.9	-85.7441
962	-85.7441
962.1	-85.7441
962.2	-85.7442
962.3	-85.7442
962.4	-85.7442
962.5	-85.7442
962.6	-85.7442
962.7	-85.7442
962.8	-85.7443
962.9	-85.7443
963	-85.7443
963.1	-85.7443
963.2	-85.7443
963.3	-85.7444
963.4	-85.7444
963.5	-85.7444
963.6	-85.7444
963.7	-85.7444
963.8	-85.7445
963.9	-85.7445
964	-85.7445
964.1	-85.7445
964.2	-85.7445
964.3	-85.7446
964.4	-85.7446
964.5	-85.7446
964.6	-85.7446
964.7	-85.7446
964.8	-85.7447
964.9	-85.7447
965	-85.7447
965.1	-85.7447
965.2	-85.7447
965.3	-85.7447
965.4	-85.7448
965.5	-85.7448
965.6	-85.7448
965.7	-85.7448
965.8	-85.7448
965.9	-85.7449
966	-85.7449
966.1	-85.7449
966.2	-85.7449
966.3	-85.7449
966.4	-85.745
966.5	-85.745
966.6	-85.745
966.7	-85.745
966.8	-85.745
966.9	-85.745
967	-85.7451
967.1	-85.7451
967.2	-85.7451
967.3	-85.7451
967.4	-85.7451
967.5	-85.7452
967.6	-85.7452
967.7	-85.7452
967.8	-85.7452
967.9	-85.7452
968	-85.7453
968.1	-85.7453
968.2	-85.7453
968.3	-85.7453
968.4	-85.7453
968.5	-85.7453
968.6	-85.7454
968.7	-85.7454
968.8	-85.7454
968.9	-85.7454
969	-85.7454
969.1	-85.7455
969.2	-85.7455
969.3	-85.7455
969.4	-85.7455
969.5	-85.7455
969.6	-85.7456
969.7	-85.7456
969.8	-85.7456
969.9	-85.7456
970	-85.7456
970.1	-85.7456
970.2	-85.7457
970.3	-85.7457
970.4	-85.7457
970.5	-85.7457
970.6	-85.7457
970.7	-85.7458
970.8	-85.7458
970.9	-85.7458
971	-85.7458
971.1	-85.7458
971.2	-85.7458
971.3	-85.7459
971.4	-85.7459
971.5	-85.7459
971.6	-85.7459
971.7	-85.7459
971.8	-85.746
971.9	-85.746
972	-85.746
972.1	-85.746
972.2	-85.746
972.3	-85.7461
972.4	-85.7461
972.5	-85.7461
972.6	-85.7461
972.7	-85.7461
972.8	-85.7461
972.9	-85.7462
973	-85.7462
973.1	-85.7462
973.2	-85.7462
973.3	-85.7462
973.4	-85.7463
973.5	-85.7463
973.6	-85.7463
973.7	-85.7463
973.8	-85.7463
973.9	-85.7463
974	-85.7464
974.1	-85.7464
974.2	-85.7464
974.3	-85.7464
974.4	-85.7464
974.5	-85.7465
974.6	-85.7465
974.7	-85.7465
974.8	-85.7465
974.9	-85.7465
975	-85.7465
975.1	-85.7466
975.2	-85.7466
975.3	-85.7466
975.4	-85.7466
975.5	-85.7466
975.6	-85.7467
975.7	-85.7467
975.8	-85.7467
975.9	-85.7467
976	-85.7467
976.1	-85.7467
976.2	-85.7468
976.3	-85.7468
976.4	-85.7468
976.5	-85.7468
976.6	-85.7468
976.7	-85.7469
976.8	-85.7469
976.9	-85.7469
977	-85.7469
977.1	-85.7469
977.2	-85.7469
977.3	-85.747
977.4	-85.747
977.5	-85.747
977.6	-85.747
977.7	-85.747
977.8	-85.7471
977.9	-85.7471
978	-85.7471
978.1	-85.7471
978.2	-85.7471
978.3	-85.7471
978.4	-85.7472
978.5	-85.7472
978.6	-85.7472
978.7	-85.7472
978.8	-85.7472
978.9	-85.7472
979	-85.7473
979.1	-85.7473
979.2	-85.7473
979.3	-85.7473
979.4	-85.7473
979.5	-85.7474
979.6	-85.7474
979.7	-85.7474
979.8	-85.7474
979.9	-85.7474
980	-85.7474
980.1	-85.7475
980.2	-85.7475
980.3	-85.7475
980.4	-85.7475
980.5	-85.7475
980.6	-85.7476
980.7	-85.7476
980.8	-85.7476
980.9	-85.7476
981	-85.7476
981.1	-85.7476
981.2	-85.7477
981.3	-85.7477
981.4	-85.7477
981.5	-85.7477
981.6	-85.7477
981.7	-85.7477
981.8	-85.7478
981.9	-85.7478
982	-85.7478
982.1	-85.7478
982.2	-85.7478
982.3	-85.7479
982.4	-85.7479
982.5	-85.7479
982.6	-85.7479
982.7	-85.7479
982.8	-85.7479
982.9	-85.748
983	-85.748
983.1	-85.748
983.2	-85.748
983.3	-85.748
983.4	-85.748
983.5	-85.7481
983.6	-85.7481
983.7	-85.7481
983.8	-85.7481
983.9	-85.7481
984	-85.7481
984.1	-85.7482
984.2	-85.7482
984.3	-85.7482
984.4	-85.7482
984.5	-85.7482
984.6	-85.7483
984.7	-85.7483
984.8	-85.7483
984.9	-85.7483
985	-85.7483
985.1	-85.7483
985.2	-85.7484
985.3	-85.7484
985.4	-85.7484
985.5	-85.7484
985.6	-85.7484
985.7	-85.7484
985.8	-85.7485
985.9	-85.7485
986	-85.7485
986.1	-85.7485
986.2	-85.7485
986.3	-85.7485
986.4	-85.7486
986.5	-85.7486
986.6	-85.7486
986.7	-85.7486
986.8	-85.7486
986.9	-85.7487
987	-85.7487
987.1	-85.7487
987.2	-85.7487
987.3	-85.7487
987.4	-85.7487
987.5	-85.7488
987.6	-85.7488
987.7	-85.7488
987.8	-85.7488
987.9	-85.7488
988	-85.7488
988.1	-85.7489
988.2	-85.7489
988.3	-85.7489
988.4	-85.7489
988.5	-85.7489
988.6	-85.7489
988.7	-85.749
988.8	-85.749
988.9	-85.749
989	-85.749
989.1	-85.749
989.2	-85.749
989.3	-85.7491
989.4	-85.7491
989.5	-85.7491
989.6	-85.7491
989.7	-85.7491
989.8	-85.7492
989.9	-85.7492
990	-85.7492
990.1	-85.7492
990.2	-85.7492
990.3	-85.7492
990.4	-85.7493
990.5	-85.7493
990.6	-85.7493
990.7	-85.7493
990.8	-85.7493
990.9	-85.7493
991	-85.7494
991.1	-85.7494
991.2	-85.7494
991.3	-85.7494
991.4	-85.7494
991.5	-85.7494
991.6	-85.7495
991.7	-85.7495
991.8	-85.7495
991.9	-85.7495
992	-85.7495
992.1	-85.7495
992.2	-85.7496
992.3	-85.7496
992.4	-85.7496
992.5	-85.7496
992.6	-85.7496
992.7	-85.7496
992.8	-85.7497
992.9	-85.7497
993	-85.7497
993.1	-85.7497
993.2	-85.7497
993.3	-85.7497
993.4	-85.7498
993.5	-85.7498
993.6	-85.7498
993.7	-85.7498
993.8	-85.7498
993.9	-85.7498
994	-85.7499
994.1	-85.7499
994.2	-85.7499
994.3	-85.7499
994.4	-85.7499
994.5	-85.7499
994.6	-85.75
994.7	-85.75
994.8	-85.75
994.9	-85.75
995	-85.75
995.1	-85.75
995.2	-85.7501
995.3	-85.7501
995.4	-85.7501
995.5	-85.7501
995.6	-85.7501
995.7	-85.7501
995.8	-85.7502
995.9	-85.7502
996	-85.7502
996.1	-85.7502
996.2	-85.7502
996.3	-85.7502
996.4	-85.7503
996.5	-85.7503
996.6	-85.7503
996.7	-85.7503
996.8	-85.7503
996.9	-85.7503
997	-85.7504
997.1	-85.7504
997.2	-85.7504
997.3	-85.7504
997.4	-85.7504
997.5	-85.7504
997.6	-85.7505
997.7	-85.7505
997.8	-85.7505
997.9	-85.7505
998	-85.7505
998.1	-85.7505
998.2	-85.7506
998.3	-85.7506
998.4	-85.7506
998.5	-85.7506
998.6	-85.7506
998.7	-85.7506
998.8	-85.7507
998.9	-85.7507
999	-85.7507
999.1	-85.7507
999.2	-85.7507
999.3	-85.7507
999.4	-85.7508
999.5	-85.7508
999.6	-85.7508
999.7	-85.7508
999.8	-85.7508
999.9	-85.7508
1000	-85.7509
