Time(ms)	Membrane_Voltage(mV)
-5	-85.7658
-4.9	-85.7658
-4.8	-85.7658
-4.7	-85.7658
-4.6	-85.7658
-4.5	-85.7658
-4.4	-85.7659
-4.3	-85.7659
-4.2	-85.7659
-4.1	-85.7659
-4	-85.7659
-3.9	-85.7659
-3.8	-85.766
-3.7	-85.766
-3.6	-85.766
-3.5	-85.766
-3.4	-85.766
-3.3	-85.766
-3.2	-85.7661
-3.1	-85.7661
-3	-85.7661
-2.9	-85.7661
-2.8	-85.7661
-2.7	-85.7661
-2.6	-85.7662
-2.5	-85.7662
-2.4	-85.7662
-2.3	-85.7662
-2.2	-85.7662
-2.1	-85.7662
-2	-85.7663
-1.9	-85.7663
-1.8	-85.7663
-1.7	-85.7663
-1.6	-85.7663
-1.5	-85.7663
-1.4	-85.7664
-1.3	-85.7664
-1.2	-85.7664
-1.1	-85.7664
-1	-85.7664
-0.9	-85.7664
-0.8	-85.7665
-0.7	-85.7665
-0.6	-85.7665
-0.5	-85.7665
-0.4	-85.7665
-0.3	-85.7665
-0.2	-85.7666
-0.1	-85.7666
0	-85.7666
0.1	-84.2885
0.2	-82.8471
0.3	-81.438
0.4	-80.0566
0.5	-78.6988
0.6	-77.3607
0.7	-76.0389
0.8	-74.73
0.9	-73.4313
1	-72.1401
1.1	-70.854
1.2	-69.5709
1.3	-68.2886
1.4	-67.0053
1.5	-65.7191
1.6	-64.428
1.7	-63.1296
1.8	-61.8207
1.9	-60.4968
2	-59.1511
2.1	-57.7727
2.2	-56.344
2.3	-54.8355
2.4	-53.1968
2.5	-51.3365
2.6	-49.0782
2.7	-46.0462
2.8	-41.3365
2.9	-32.6678
3	-16.0443
3.1	3.16985
3.2	14.7829
3.3	19.4492
3.4	20.7696
3.5	20.6106
3.6	19.8138
3.7	18.764
3.8	17.6417
3.9	16.5335
4	15.4802
4.1	14.4987
4.2	13.5927
4.3	12.7584
4.4	11.988
4.5	11.2723
4.6	10.6021
4.7	9.96901
4.8	9.36578
4.9	8.78658
5	8.22696
5.1	7.68352
5.2	7.15379
5.3	6.63614
5.4	6.12951
5.5	5.63324
5.6	5.14703
5.7	4.6708
5.8	4.20459
5.9	3.74853
6	3.3028
6.1	2.86756
6.2	2.44296
6.3	2.02912
6.4	1.62613
6.5	1.234
6.6	0.852728
6.7	0.482254
6.8	0.122473
6.9	-0.226753
7	-0.565596
7.1	-0.894256
7.2	-1.21296
7.3	-1.52193
7.4	-1.82144
7.5	-2.11175
7.6	-2.39312
7.7	-2.66583
7.8	-2.93015
7.9	-3.18637
8	-3.43475
8.1	-3.67556
8.2	-3.90907
8.3	-4.13554
8.4	-4.35523
8.5	-4.56836
8.6	-4.7752
8.7	-4.97597
8.8	-5.17089
8.9	-5.36019
9	-5.54406
9.1	-5.72272
9.2	-5.89636
9.3	-6.06517
9.4	-6.22932
9.5	-6.38899
9.6	-6.54435
9.7	-6.69556
9.8	-6.84277
9.9	-6.98612
10	-7.12577
10.1	-7.26184
10.2	-7.39447
10.3	-7.52378
10.4	-7.6499
10.5	-7.77293
10.6	-7.89299
10.7	-8.01018
10.8	-8.12461
10.9	-8.23637
11	-8.34556
11.1	-8.45226
11.2	-8.55657
11.3	-8.65856
11.4	-8.75832
11.5	-8.85592
11.6	-8.95143
11.7	-9.04493
11.8	-9.13647
11.9	-9.22614
12	-9.31398
12.1	-9.40006
12.2	-9.48444
12.3	-9.56716
12.4	-9.64829
12.5	-9.72787
12.6	-9.80596
12.7	-9.88259
12.8	-9.95783
12.9	-10.0317
13	-10.1042
13.1	-10.1755
13.2	-10.2455
13.3	-10.3144
13.4	-10.382
13.5	-10.4486
13.6	-10.514
13.7	-10.5783
13.8	-10.6416
13.9	-10.704
14	-10.7653
14.1	-10.8257
14.2	-10.8851
14.3	-10.9437
14.4	-11.0013
14.5	-11.0581
14.6	-11.1141
14.7	-11.1693
14.8	-11.2237
14.9	-11.2773
15	-11.3302
15.1	-11.3824
15.2	-11.4338
15.3	-11.4846
15.4	-11.5346
15.5	-11.584
15.6	-11.6328
15.7	-11.6809
15.8	-11.7285
15.9	-11.7754
16	-11.8217
16.1	-11.8675
16.2	-11.9127
16.3	-11.9574
16.4	-12.0015
16.5	-12.0451
16.6	-12.0881
16.7	-12.1307
16.8	-12.1728
16.9	-12.2144
17	-12.2555
17.1	-12.2961
17.2	-12.3363
17.3	-12.3761
17.4	-12.4154
17.5	-12.4542
17.6	-12.4927
17.7	-12.5307
17.8	-12.5683
17.9	-12.6055
18	-12.6423
18.1	-12.6787
18.2	-12.7148
18.3	-12.7504
18.4	-12.7857
18.5	-12.8206
18.6	-12.8551
18.7	-12.8893
18.8	-12.9231
18.9	-12.9566
19	-12.9897
19.1	-13.0225
19.2	-13.0549
19.3	-13.087
19.4	-13.1188
19.5	-13.1503
19.6	-13.1814
19.7	-13.2122
19.8	-13.2427
19.9	-13.2729
20	-13.3027
20.1	-13.3323
20.2	-13.3615
20.3	-13.3905
20.4	-13.4191
20.5	-13.4474
20.6	-13.4755
20.7	-13.5032
20.8	-13.5307
20.9	-13.5579
21	-13.5847
21.1	-13.6113
21.2	-13.6376
21.3	-13.6637
21.4	-13.6894
21.5	-13.7148
21.6	-13.74
21.7	-13.7649
21.8	-13.7895
21.9	-13.8139
22	-13.8379
22.1	-13.8617
22.2	-13.8852
22.3	-13.9085
22.4	-13.9314
22.5	-13.9541
22.6	-13.9766
22.7	-13.9987
22.8	-14.0206
22.9	-14.0422
23	-14.0636
23.1	-14.0846
23.2	-14.1055
23.3	-14.126
23.4	-14.1463
23.5	-14.1663
23.6	-14.186
23.7	-14.2055
23.8	-14.2247
23.9	-14.2436
24	-14.2623
24.1	-14.2807
24.2	-14.2988
24.3	-14.3167
24.4	-14.3343
24.5	-14.3516
24.6	-14.3687
24.7	-14.3854
24.8	-14.402
24.9	-14.4182
25	-14.4342
25.1	-14.4499
25.2	-14.4654
25.3	-14.4805
25.4	-14.4955
25.5	-14.5101
25.6	-14.5245
25.7	-14.5385
25.8	-14.5524
25.9	-14.5659
26	-14.5792
26.1	-14.5922
26.2	-14.6049
26.3	-14.6174
26.4	-14.6295
26.5	-14.6415
26.6	-14.6531
26.7	-14.6644
26.8	-14.6755
26.9	-14.6863
27	-14.6968
27.1	-14.707
27.2	-14.717
27.3	-14.7267
27.4	-14.7361
27.5	-14.7452
27.6	-14.754
27.7	-14.7625
27.8	-14.7708
27.9	-14.7788
28	-14.7865
28.1	-14.7939
28.2	-14.801
28.3	-14.8078
28.4	-14.8144
28.5	-14.8206
28.6	-14.8266
28.7	-14.8323
28.8	-14.8376
28.9	-14.8427
29	-14.8475
29.1	-14.852
29.2	-14.8563
29.3	-14.8602
29.4	-14.8638
29.5	-14.8671
29.6	-14.8702
29.7	-14.8729
29.8	-14.8753
29.9	-14.8775
30	-14.8793
30.1	-14.8808
30.2	-14.8821
30.3	-14.883
30.4	-14.8837
30.5	-14.884
30.6	-14.884
30.7	-14.8838
30.8	-14.8832
30.9	-14.8823
31	-14.8811
31.1	-14.8796
31.2	-14.8778
31.3	-14.8757
31.4	-14.8733
31.5	-14.8706
31.6	-14.8676
31.7	-14.8642
31.8	-14.8606
31.9	-14.8566
32	-14.8523
32.1	-14.8478
32.2	-14.8429
32.3	-14.8376
32.4	-14.8321
32.5	-14.8263
32.6	-14.8201
32.7	-14.8137
32.8	-14.8069
32.9	-14.7998
33	-14.7924
33.1	-14.7846
33.2	-14.7766
33.3	-14.7682
33.4	-14.7595
33.5	-14.7505
33.6	-14.7412
33.7	-14.7315
33.8	-14.7215
33.9	-14.7112
34	-14.7006
34.1	-14.6896
34.2	-14.6784
34.3	-14.6668
34.4	-14.6548
34.5	-14.6426
34.6	-14.63
34.7	-14.6171
34.8	-14.6038
34.9	-14.5902
35	-14.5763
35.1	-14.5621
35.2	-14.5475
35.3	-14.5326
35.4	-14.5174
35.5	-14.5018
35.6	-14.4859
35.7	-14.4697
35.8	-14.4531
35.9	-14.4362
36	-14.4189
36.1	-14.4013
36.2	-14.3834
36.3	-14.3651
36.4	-14.3465
36.5	-14.3275
36.6	-14.3082
36.7	-14.2886
36.8	-14.2686
36.9	-14.2483
37	-14.2276
37.1	-14.2066
37.2	-14.1852
37.3	-14.1635
37.4	-14.1414
37.5	-14.119
37.6	-14.0962
37.7	-14.0731
37.8	-14.0496
37.9	-14.0258
38	-14.0016
38.1	-13.9771
38.2	-13.9522
38.3	-13.9269
38.4	-13.9013
38.5	-13.8754
38.6	-13.8491
38.7	-13.8224
38.8	-13.7953
38.9	-13.7679
39	-13.7402
39.1	-13.712
39.2	-13.6835
39.3	-13.6547
39.4	-13.6255
39.5	-13.5959
39.6	-13.5659
39.7	-13.5356
39.8	-13.5049
39.9	-13.4738
40	-13.4424
40.1	-13.4106
40.2	-13.3784
40.3	-13.3458
40.4	-13.3129
40.5	-13.2796
40.6	-13.2459
40.7	-13.2118
40.8	-13.1774
40.9	-13.1426
41	-13.1074
41.1	-13.0718
41.2	-13.0358
41.3	-12.9994
41.4	-12.9627
41.5	-12.9256
41.6	-12.888
41.7	-12.8501
41.8	-12.8118
41.9	-12.7732
42	-12.7341
42.1	-12.6946
42.2	-12.6547
42.3	-12.6145
42.4	-12.5738
42.5	-12.5327
42.6	-12.4913
42.7	-12.4494
42.8	-12.4071
42.9	-12.3645
43	-12.3214
43.1	-12.2779
43.2	-12.234
43.3	-12.1898
43.4	-12.1451
43.5	-12.0999
43.6	-12.0544
43.7	-12.0085
43.8	-11.9621
43.9	-11.9154
44	-11.8682
44.1	-11.8206
44.2	-11.7725
44.3	-11.7241
44.4	-11.6752
44.5	-11.6259
44.6	-11.5762
44.7	-11.5261
44.8	-11.4755
44.9	-11.4245
45	-11.373
45.1	-11.3212
45.2	-11.2689
45.3	-11.2161
45.4	-11.1629
45.5	-11.1093
45.6	-11.0552
45.7	-11.0007
45.8	-10.9458
45.9	-10.8904
46	-10.8346
46.1	-10.7783
46.2	-10.7215
46.3	-10.6643
46.4	-10.6067
46.5	-10.5486
46.6	-10.49
46.7	-10.431
46.8	-10.3715
46.9	-10.3116
47	-10.2512
47.1	-10.1903
47.2	-10.129
47.3	-10.0672
47.4	-10.0049
47.5	-9.94214
47.6	-9.87891
47.7	-9.81521
47.8	-9.75104
47.9	-9.68638
48	-9.62124
48.1	-9.55562
48.2	-9.48951
48.3	-9.42292
48.4	-9.35584
48.5	-9.28826
48.6	-9.2202
48.7	-9.15164
48.8	-9.08259
48.9	-9.01304
49	-8.94299
49.1	-8.87244
49.2	-8.80138
49.3	-8.72982
49.4	-8.65776
49.5	-8.58519
49.6	-8.5121
49.7	-8.43851
49.8	-8.3644
49.9	-8.28978
50	-8.21464
50.1	-8.13898
50.2	-8.0628
50.3	-7.9861
50.4	-7.90887
50.5	-7.83112
50.6	-7.75285
50.7	-7.67404
50.8	-7.59471
50.9	-7.51484
51	-7.43444
51.1	-7.3535
51.2	-7.27203
51.3	-7.19002
51.4	-7.10747
51.5	-7.02437
51.6	-6.94074
51.7	-6.85656
51.8	-6.77184
51.9	-6.68657
52	-6.60076
52.1	-6.51439
52.2	-6.42748
52.3	-6.34002
52.4	-6.252
52.5	-6.16343
52.6	-6.07431
52.7	-5.98463
52.8	-5.8944
52.9	-5.80361
53	-5.71226
53.1	-5.62036
53.2	-5.5279
53.3	-5.43488
53.4	-5.3413
53.5	-5.24716
53.6	-5.15246
53.7	-5.05721
53.8	-4.96139
53.9	-4.86502
54	-4.76809
54.1	-4.6706
54.2	-4.57255
54.3	-4.47394
54.4	-4.37478
54.5	-4.27506
54.6	-4.17479
54.7	-4.07396
54.8	-3.97258
54.9	-3.87064
55	-3.76816
55.1	-3.66513
55.2	-3.56155
55.3	-3.45743
55.4	-3.35277
55.5	-3.24756
55.6	-3.14182
55.7	-3.03554
55.8	-2.92874
55.9	-2.8214
56	-2.71353
56.1	-2.60515
56.2	-2.49624
56.3	-2.38683
56.4	-2.2769
56.5	-2.16646
56.6	-2.05552
56.7	-1.94409
56.8	-1.83216
56.9	-1.71974
57	-1.60685
57.1	-1.49348
57.2	-1.37964
57.3	-1.26533
57.4	-1.15057
57.5	-1.03536
57.6	-0.919706
57.7	-0.803616
57.8	-0.687098
57.9	-0.570161
58	-0.452812
58.1	-0.335059
58.2	-0.216911
58.3	-0.0983785
58.4	0.0205305
58.5	0.139806
58.6	0.259438
58.7	0.379416
58.8	0.49973
58.9	0.620369
59	0.741322
59.1	0.862576
59.2	0.984122
59.3	1.10595
59.4	1.22804
59.5	1.35038
59.6	1.47296
59.7	1.59577
59.8	1.7188
59.9	1.84202
60	1.96543
60.1	2.08902
60.2	2.21276
60.3	2.33664
60.4	2.46065
60.5	2.58477
60.6	2.70899
60.7	2.83329
60.8	2.95766
60.9	3.08207
61	3.20652
61.1	3.33098
61.2	3.45545
61.3	3.57989
61.4	3.70431
61.5	3.82867
61.6	3.95296
61.7	4.07717
61.8	4.20127
61.9	4.32526
62	4.4491
62.1	4.5728
62.2	4.69632
62.3	4.81965
62.4	4.94277
62.5	5.06566
62.6	5.18832
62.7	5.31071
62.8	5.43283
62.9	5.55465
63	5.67616
63.1	5.79734
63.2	5.91818
63.3	6.03865
63.4	6.15874
63.5	6.27844
63.6	6.39772
63.7	6.51658
63.8	6.63499
63.9	6.75294
64	6.87042
64.1	6.98741
64.2	7.10389
64.3	7.21985
64.4	7.33528
64.5	7.45015
64.6	7.56447
64.7	7.67821
64.8	7.79136
64.9	7.9039
65	8.01584
65.1	8.12714
65.2	8.23781
65.3	8.34782
65.4	8.45718
65.5	8.56586
65.6	8.67386
65.7	8.78116
65.8	8.88777
65.9	8.99366
66	9.09883
66.1	9.20327
66.2	9.30697
66.3	9.40992
66.4	9.51212
66.5	9.61356
66.6	9.71423
66.7	9.81412
66.8	9.91324
66.9	10.0116
67	10.1091
67.1	10.2058
67.2	10.3018
67.3	10.3969
67.4	10.4912
67.5	10.5847
67.6	10.6774
67.7	10.7693
67.8	10.8603
67.9	10.9505
68	11.0399
68.1	11.1285
68.2	11.2162
68.3	11.3031
68.4	11.3891
68.5	11.4744
68.6	11.5587
68.7	11.6423
68.8	11.725
68.9	11.8069
69	11.8879
69.1	11.9681
69.2	12.0474
69.3	12.126
69.4	12.2037
69.5	12.2805
69.6	12.3566
69.7	12.4318
69.8	12.5061
69.9	12.5797
70	12.6524
70.1	12.7243
70.2	12.7954
70.3	12.8657
70.4	12.9352
70.5	13.0038
70.6	13.0717
70.7	13.1387
70.8	13.205
70.9	13.2704
71	13.3351
71.1	13.399
71.2	13.4621
71.3	13.5244
71.4	13.5859
71.5	13.6467
71.6	13.7067
71.7	13.7659
71.8	13.8244
71.9	13.8821
72	13.939
72.1	13.9953
72.2	14.0507
72.3	14.1055
72.4	14.1595
72.5	14.2128
72.6	14.2653
72.7	14.3171
72.8	14.3683
72.9	14.4187
73	14.4684
73.1	14.5174
73.2	14.5657
73.3	14.6133
73.4	14.6602
73.5	14.7065
73.6	14.752
73.7	14.7969
73.8	14.8412
73.9	14.8847
74	14.9277
74.1	14.9699
74.2	15.0115
74.3	15.0525
74.4	15.0929
74.5	15.1326
74.6	15.1716
74.7	15.2101
74.8	15.2479
74.9	15.2852
75	15.3218
75.1	15.3578
75.2	15.3932
75.3	15.428
75.4	15.4623
75.5	15.4959
75.6	15.529
75.7	15.5615
75.8	15.5934
75.9	15.6248
76	15.6556
76.1	15.6858
76.2	15.7155
76.3	15.7446
76.4	15.7732
76.5	15.8013
76.6	15.8288
76.7	15.8558
76.8	15.8823
76.9	15.9083
77	15.9337
77.1	15.9586
77.2	15.9831
77.3	16.007
77.4	16.0304
77.5	16.0533
77.6	16.0757
77.7	16.0977
77.8	16.1191
77.9	16.1401
78	16.1606
78.1	16.1807
78.2	16.2003
78.3	16.2194
78.4	16.238
78.5	16.2562
78.6	16.274
78.7	16.2913
78.8	16.3081
78.9	16.3246
79	16.3406
79.1	16.3561
79.2	16.3712
79.3	16.3859
79.4	16.4002
79.5	16.4141
79.6	16.4276
79.7	16.4406
79.8	16.4532
79.9	16.4655
80	16.4773
80.1	16.4888
80.2	16.4998
80.3	16.5105
80.4	16.5208
80.5	16.5306
80.6	16.5402
80.7	16.5493
80.8	16.5581
80.9	16.5665
81	16.5745
81.1	16.5822
81.2	16.5895
81.3	16.5964
81.4	16.603
81.5	16.6093
81.6	16.6152
81.7	16.6208
81.8	16.626
81.9	16.6308
82	16.6354
82.1	16.6396
82.2	16.6435
82.3	16.647
82.4	16.6503
82.5	16.6532
82.6	16.6558
82.7	16.658
82.8	16.66
82.9	16.6616
83	16.663
83.1	16.664
83.2	16.6648
83.3	16.6652
83.4	16.6653
83.5	16.6652
83.6	16.6647
83.7	16.664
83.8	16.663
83.9	16.6616
84	16.66
84.1	16.6582
84.2	16.656
84.3	16.6536
84.4	16.6509
84.5	16.6479
84.6	16.6447
84.7	16.6412
84.8	16.6374
84.9	16.6334
85	16.6291
85.1	16.6245
85.2	16.6197
85.3	16.6147
85.4	16.6094
85.5	16.6038
85.6	16.598
85.7	16.592
85.8	16.5857
85.9	16.5791
86	16.5724
86.1	16.5654
86.2	16.5581
86.3	16.5507
86.4	16.543
86.5	16.535
86.6	16.5269
86.7	16.5185
86.8	16.5099
86.9	16.5011
87	16.4921
87.1	16.4828
87.2	16.4733
87.3	16.4636
87.4	16.4537
87.5	16.4436
87.6	16.4333
87.7	16.4228
87.8	16.4121
87.9	16.4011
88	16.39
88.1	16.3787
88.2	16.3672
88.3	16.3554
88.4	16.3435
88.5	16.3314
88.6	16.3191
88.7	16.3066
88.8	16.2939
88.9	16.2811
89	16.268
89.1	16.2548
89.2	16.2414
89.3	16.2278
89.4	16.214
89.5	16.2
89.6	16.1859
89.7	16.1716
89.8	16.1571
89.9	16.1425
90	16.1277
90.1	16.1127
90.2	16.0975
90.3	16.0822
90.4	16.0667
90.5	16.0511
90.6	16.0353
90.7	16.0193
90.8	16.0032
90.9	15.9869
91	15.9705
91.1	15.9539
91.2	15.9371
91.3	15.9202
91.4	15.9032
91.5	15.886
91.6	15.8686
91.7	15.8511
91.8	15.8335
91.9	15.8157
92	15.7978
92.1	15.7797
92.2	15.7615
92.3	15.7431
92.4	15.7246
92.5	15.706
92.6	15.6872
92.7	15.6683
92.8	15.6492
92.9	15.6301
93	15.6108
93.1	15.5913
93.2	15.5717
93.3	15.552
93.4	15.5322
93.5	15.5123
93.6	15.4922
93.7	15.472
93.8	15.4516
93.9	15.4312
94	15.4106
94.1	15.3899
94.2	15.3691
94.3	15.3482
94.4	15.3271
94.5	15.306
94.6	15.2847
94.7	15.2633
94.8	15.2418
94.9	15.2201
95	15.1984
95.1	15.1766
95.2	15.1546
95.3	15.1325
95.4	15.1103
95.5	15.0881
95.6	15.0657
95.7	15.0432
95.8	15.0206
95.9	14.9979
96	14.9751
96.1	14.9521
96.2	14.9291
96.3	14.906
96.4	14.8828
96.5	14.8595
96.6	14.8361
96.7	14.8126
96.8	14.789
96.9	14.7653
97	14.7415
97.1	14.7176
97.2	14.6936
97.3	14.6695
97.4	14.6454
97.5	14.6211
97.6	14.5968
97.7	14.5723
97.8	14.5478
97.9	14.5232
98	14.4985
98.1	14.4737
98.2	14.4488
98.3	14.4238
98.4	14.3988
98.5	14.3737
98.6	14.3485
98.7	14.3232
98.8	14.2978
98.9	14.2723
99	14.2468
99.1	14.2212
99.2	14.1955
99.3	14.1697
99.4	14.1438
99.5	14.1179
99.6	14.0919
99.7	14.0658
99.8	14.0396
99.9	14.0134
100	13.9871
100.1	13.9607
100.2	13.9342
100.3	13.9077
100.4	13.8811
100.5	13.8544
100.6	13.8277
100.7	13.8009
100.8	13.774
100.9	13.7471
101	13.72
101.1	13.693
101.2	13.6658
101.3	13.6386
101.4	13.6113
101.5	13.5839
101.6	13.5565
101.7	13.529
101.8	13.5015
101.9	13.4739
102	13.4462
102.1	13.4185
102.2	13.3907
102.3	13.3628
102.4	13.3349
102.5	13.3069
102.6	13.2789
102.7	13.2508
102.8	13.2226
102.9	13.1944
103	13.1661
103.1	13.1378
103.2	13.1094
103.3	13.0809
103.4	13.0524
103.5	13.0239
103.6	12.9953
103.7	12.9666
103.8	12.9379
103.9	12.9091
104	12.8802
104.1	12.8514
104.2	12.8224
104.3	12.7934
104.4	12.7644
104.5	12.7353
104.6	12.7061
104.7	12.6769
104.8	12.6477
104.9	12.6184
105	12.589
105.1	12.5596
105.2	12.5302
105.3	12.5007
105.4	12.4711
105.5	12.4415
105.6	12.4119
105.7	12.3822
105.8	12.3525
105.9	12.3227
106	12.2929
106.1	12.263
106.2	12.2331
106.3	12.2031
106.4	12.1731
106.5	12.143
106.6	12.1129
106.7	12.0828
106.8	12.0526
106.9	12.0224
107	11.9921
107.1	11.9618
107.2	11.9314
107.3	11.901
107.4	11.8706
107.5	11.8401
107.6	11.8096
107.7	11.779
107.8	11.7484
107.9	11.7177
108	11.6871
108.1	11.6563
108.2	11.6256
108.3	11.5948
108.4	11.5639
108.5	11.533
108.6	11.5021
108.7	11.4712
108.8	11.4402
108.9	11.4091
109	11.378
109.1	11.3469
109.2	11.3158
109.3	11.2846
109.4	11.2534
109.5	11.2221
109.6	11.1908
109.7	11.1595
109.8	11.1281
109.9	11.0967
110	11.0653
110.1	11.0338
110.2	11.0023
110.3	10.9708
110.4	10.9392
110.5	10.9076
110.6	10.876
110.7	10.8443
110.8	10.8126
110.9	10.7809
111	10.7491
111.1	10.7173
111.2	10.6854
111.3	10.6536
111.4	10.6217
111.5	10.5897
111.6	10.5577
111.7	10.5257
111.8	10.4937
111.9	10.4616
112	10.4296
112.1	10.3974
112.2	10.3653
112.3	10.3331
112.4	10.3009
112.5	10.2686
112.6	10.2363
112.7	10.204
112.8	10.1717
112.9	10.1393
113	10.1069
113.1	10.0745
113.2	10.042
113.3	10.0095
113.4	9.97699
113.5	9.94444
113.6	9.91187
113.7	9.87926
113.8	9.84662
113.9	9.81396
114	9.78126
114.1	9.74854
114.2	9.71579
114.3	9.68301
114.4	9.6502
114.5	9.61737
114.6	9.58451
114.7	9.55161
114.8	9.5187
114.9	9.48575
115	9.45277
115.1	9.41977
115.2	9.38674
115.3	9.35369
115.4	9.3206
115.5	9.28749
115.6	9.25435
115.7	9.22119
115.8	9.18799
115.9	9.15478
116	9.12153
116.1	9.08826
116.2	9.05496
116.3	9.02163
116.4	8.98828
116.5	8.9549
116.6	8.92149
116.7	8.88806
116.8	8.8546
116.9	8.82112
117	8.78761
117.1	8.75407
117.2	8.72051
117.3	8.68692
117.4	8.65331
117.5	8.61967
117.6	8.586
117.7	8.55231
117.8	8.51859
117.9	8.48484
118	8.45107
118.1	8.41728
118.2	8.38346
118.3	8.34961
118.4	8.31574
118.5	8.28184
118.6	8.24791
118.7	8.21396
118.8	8.17999
118.9	8.14599
119	8.11196
119.1	8.07791
119.2	8.04383
119.3	8.00973
119.4	7.9756
119.5	7.94145
119.6	7.90727
119.7	7.87307
119.8	7.83884
119.9	7.80458
120	7.7703
120.1	7.736
120.2	7.70166
120.3	7.66731
120.4	7.63293
120.5	7.59852
120.6	7.56408
120.7	7.52963
120.8	7.49514
120.9	7.46063
121	7.4261
121.1	7.39154
121.2	7.35695
121.3	7.32234
121.4	7.2877
121.5	7.25304
121.6	7.21835
121.7	7.18364
121.8	7.1489
121.9	7.11413
122	7.07934
122.1	7.04453
122.2	7.00969
122.3	6.97482
122.4	6.93992
122.5	6.90501
122.6	6.87006
122.7	6.83509
122.8	6.80009
122.9	6.76507
123	6.73002
123.1	6.69494
123.2	6.65984
123.3	6.62472
123.4	6.58956
123.5	6.55438
123.6	6.51918
123.7	6.48394
123.8	6.44869
123.9	6.4134
124	6.37809
124.1	6.34275
124.2	6.30739
124.3	6.272
124.4	6.23658
124.5	6.20113
124.6	6.16566
124.7	6.13016
124.8	6.09464
124.9	6.05909
125	6.02351
125.1	5.9879
125.2	5.95227
125.3	5.91661
125.4	5.88092
125.5	5.84521
125.6	5.80947
125.7	5.7737
125.8	5.7379
125.9	5.70207
126	5.66622
126.1	5.63034
126.2	5.59443
126.3	5.5585
126.4	5.52253
126.5	5.48654
126.6	5.45052
126.7	5.41448
126.8	5.3784
126.9	5.3423
127	5.30616
127.1	5.27
127.2	5.23381
127.3	5.19759
127.4	5.16135
127.5	5.12507
127.6	5.08877
127.7	5.05243
127.8	5.01607
127.9	4.97968
128	4.94326
128.1	4.90681
128.2	4.87033
128.3	4.83382
128.4	4.79728
128.5	4.76072
128.6	4.72412
128.7	4.68749
128.8	4.65083
128.9	4.61415
129	4.57743
129.1	4.54068
129.2	4.5039
129.3	4.4671
129.4	4.43026
129.5	4.39339
129.6	4.35649
129.7	4.31956
129.8	4.2826
129.9	4.24561
130	4.20859
130.1	4.17153
130.2	4.13445
130.3	4.09733
130.4	4.06019
130.5	4.02301
130.6	3.9858
130.7	3.94856
130.8	3.91128
130.9	3.87398
131	3.83664
131.1	3.79927
131.2	3.76187
131.3	3.72444
131.4	3.68697
131.5	3.64947
131.6	3.61194
131.7	3.57438
131.8	3.53678
131.9	3.49916
132	3.46149
132.1	3.4238
132.2	3.38607
132.3	3.34831
132.4	3.31052
132.5	3.27269
132.6	3.23483
132.7	3.19694
132.8	3.15901
132.9	3.12105
133	3.08305
133.1	3.04502
133.2	3.00696
133.3	2.96886
133.4	2.93073
133.5	2.89257
133.6	2.85437
133.7	2.81613
133.8	2.77786
133.9	2.73956
134	2.70122
134.1	2.66284
134.2	2.62443
134.3	2.58599
134.4	2.54751
134.5	2.509
134.6	2.47045
134.7	2.43186
134.8	2.39324
134.9	2.35458
135	2.31589
135.1	2.27716
135.2	2.2384
135.3	2.1996
135.4	2.16076
135.5	2.12189
135.6	2.08298
135.7	2.04403
135.8	2.00505
135.9	1.96603
136	1.92697
136.1	1.88788
136.2	1.84875
136.3	1.80958
136.4	1.77038
136.5	1.73114
136.6	1.69186
136.7	1.65255
136.8	1.61319
136.9	1.5738
137	1.53437
137.1	1.49491
137.2	1.4554
137.3	1.41586
137.4	1.37628
137.5	1.33667
137.6	1.29701
137.7	1.25732
137.8	1.21758
137.9	1.17781
138	1.138
138.1	1.09815
138.2	1.05827
138.3	1.01834
138.4	0.978379
138.5	0.938376
138.6	0.898334
138.7	0.858253
138.8	0.818132
138.9	0.777973
139	0.737774
139.1	0.697537
139.2	0.657259
139.3	0.616942
139.4	0.576586
139.5	0.53619
139.6	0.495754
139.7	0.455279
139.8	0.414763
139.9	0.374208
140	0.333613
140.1	0.292977
140.2	0.252302
140.3	0.211586
140.4	0.170831
140.5	0.130035
140.6	0.0891981
140.7	0.0483212
140.8	0.00740389
140.9	-0.033554
141	-0.0745524
141.1	-0.115591
141.2	-0.156671
141.3	-0.197792
141.4	-0.238953
141.5	-0.280155
141.6	-0.321398
141.7	-0.362682
141.8	-0.404007
141.9	-0.445373
142	-0.486781
142.1	-0.528229
142.2	-0.569718
142.3	-0.611249
142.4	-0.652821
142.5	-0.694434
142.6	-0.736089
142.7	-0.777785
142.8	-0.819522
142.9	-0.861301
143	-0.903121
143.1	-0.944983
143.2	-0.986886
143.3	-1.02883
143.4	-1.07082
143.5	-1.11285
143.6	-1.15492
143.7	-1.19703
143.8	-1.23918
143.9	-1.28138
144	-1.32361
144.1	-1.36589
144.2	-1.40821
144.3	-1.45057
144.4	-1.49298
144.5	-1.53542
144.6	-1.57791
144.7	-1.62044
144.8	-1.66301
144.9	-1.70562
145	-1.74828
145.1	-1.79097
145.2	-1.83371
145.3	-1.87649
145.4	-1.91931
145.5	-1.96218
145.6	-2.00508
145.7	-2.04803
145.8	-2.09102
145.9	-2.13405
146	-2.17713
146.1	-2.22024
146.2	-2.2634
146.3	-2.3066
146.4	-2.34984
146.5	-2.39312
146.6	-2.43644
146.7	-2.47981
146.8	-2.52322
146.9	-2.56667
147	-2.61016
147.1	-2.65369
147.2	-2.69726
147.3	-2.74088
147.4	-2.78454
147.5	-2.82823
147.6	-2.87197
147.7	-2.91575
147.8	-2.95958
147.9	-3.00344
148	-3.04735
148.1	-3.09129
148.2	-3.13528
148.3	-3.17931
148.4	-3.22338
148.5	-3.26749
148.6	-3.31164
148.7	-3.35584
148.8	-3.40007
148.9	-3.44435
149	-3.48866
149.1	-3.53302
149.2	-3.57741
149.3	-3.62185
149.4	-3.66633
149.5	-3.71085
149.6	-3.75541
149.7	-3.80001
149.8	-3.84465
149.9	-3.88933
150	-3.93405
150.1	-3.97881
150.2	-4.02361
150.3	-4.06844
150.4	-4.11332
150.5	-4.15824
150.6	-4.2032
150.7	-4.2482
150.8	-4.29324
150.9	-4.33832
151	-4.38343
151.1	-4.42859
151.2	-4.47378
151.3	-4.51902
151.4	-4.56429
151.5	-4.6096
151.6	-4.65495
151.7	-4.70034
151.8	-4.74577
151.9	-4.79123
152	-4.83673
152.1	-4.88228
152.2	-4.92786
152.3	-4.97347
152.4	-5.01913
152.5	-5.06482
152.6	-5.11055
152.7	-5.15632
152.8	-5.20213
152.9	-5.24797
153	-5.29385
153.1	-5.33977
153.2	-5.38572
153.3	-5.43172
153.4	-5.47774
153.5	-5.52381
153.6	-5.56991
153.7	-5.61604
153.8	-5.66222
153.9	-5.70843
154	-5.75467
154.1	-5.80095
154.2	-5.84727
154.3	-5.89362
154.4	-5.94001
154.5	-5.98643
154.6	-6.03288
154.7	-6.07938
154.8	-6.1259
154.9	-6.17246
155	-6.21906
155.1	-6.26569
155.2	-6.31235
155.3	-6.35905
155.4	-6.40579
155.5	-6.45255
155.6	-6.49935
155.7	-6.54618
155.8	-6.59305
155.9	-6.63995
156	-6.68688
156.1	-6.73385
156.2	-6.78084
156.3	-6.82788
156.4	-6.87494
156.5	-6.92203
156.6	-6.96916
156.7	-7.01632
156.8	-7.06351
156.9	-7.11073
157	-7.15799
157.1	-7.20527
157.2	-7.25259
157.3	-7.29993
157.4	-7.34731
157.5	-7.39472
157.6	-7.44216
157.7	-7.48963
157.8	-7.53713
157.9	-7.58466
158	-7.63222
158.1	-7.6798
158.2	-7.72742
158.3	-7.77507
158.4	-7.82275
158.5	-7.87045
158.6	-7.91819
158.7	-7.96595
158.8	-8.01374
158.9	-8.06156
159	-8.10941
159.1	-8.15728
159.2	-8.20519
159.3	-8.25312
159.4	-8.30108
159.5	-8.34907
159.6	-8.39708
159.7	-8.44512
159.8	-8.49319
159.9	-8.54128
160	-8.5894
160.1	-8.63755
160.2	-8.68572
160.3	-8.73392
160.4	-8.78215
160.5	-8.8304
160.6	-8.87867
160.7	-8.92697
160.8	-8.9753
160.9	-9.02365
161	-9.07203
161.1	-9.12043
161.2	-9.16886
161.3	-9.21731
161.4	-9.26578
161.5	-9.31428
161.6	-9.3628
161.7	-9.41135
161.8	-9.45992
161.9	-9.50851
162	-9.55713
162.1	-9.60577
162.2	-9.65443
162.3	-9.70311
162.4	-9.75182
162.5	-9.80055
162.6	-9.8493
162.7	-9.89808
162.8	-9.94687
162.9	-9.99569
163	-10.0445
163.1	-10.0934
163.2	-10.1423
163.3	-10.1912
163.4	-10.2401
163.5	-10.2891
163.6	-10.338
163.7	-10.387
163.8	-10.436
163.9	-10.485
164	-10.5341
164.1	-10.5832
164.2	-10.6322
164.3	-10.6814
164.4	-10.7305
164.5	-10.7796
164.6	-10.8288
164.7	-10.878
164.8	-10.9272
164.9	-10.9764
165	-11.0256
165.1	-11.0749
165.2	-11.1242
165.3	-11.1735
165.4	-11.2228
165.5	-11.2721
165.6	-11.3215
165.7	-11.3709
165.8	-11.4202
165.9	-11.4696
166	-11.5191
166.1	-11.5685
166.2	-11.618
166.3	-11.6674
166.4	-11.7169
166.5	-11.7664
166.6	-11.816
166.7	-11.8655
166.8	-11.9151
166.9	-11.9646
167	-12.0142
167.1	-12.0638
167.2	-12.1134
167.3	-12.1631
167.4	-12.2127
167.5	-12.2624
167.6	-12.3121
167.7	-12.3618
167.8	-12.4115
167.9	-12.4612
168	-12.511
168.1	-12.5607
168.2	-12.6105
168.3	-12.6603
168.4	-12.7101
168.5	-12.7599
168.6	-12.8098
168.7	-12.8596
168.8	-12.9095
168.9	-12.9594
169	-13.0093
169.1	-13.0592
169.2	-13.1091
169.3	-13.159
169.4	-13.209
169.5	-13.2589
169.6	-13.3089
169.7	-13.3589
169.8	-13.4089
169.9	-13.4589
170	-13.5089
170.1	-13.559
170.2	-13.609
170.3	-13.6591
170.4	-13.7092
170.5	-13.7593
170.6	-13.8094
170.7	-13.8595
170.8	-13.9097
170.9	-13.9598
171	-14.01
171.1	-14.0601
171.2	-14.1103
171.3	-14.1605
171.4	-14.2107
171.5	-14.261
171.6	-14.3112
171.7	-14.3615
171.8	-14.4117
171.9	-14.462
172	-14.5123
172.1	-14.5626
172.2	-14.6129
172.3	-14.6632
172.4	-14.7136
172.5	-14.7639
172.6	-14.8143
172.7	-14.8647
172.8	-14.9151
172.9	-14.9655
173	-15.0159
173.1	-15.0663
173.2	-15.1167
173.3	-15.1672
173.4	-15.2177
173.5	-15.2681
173.6	-15.3186
173.7	-15.3691
173.8	-15.4196
173.9	-15.4702
174	-15.5207
174.1	-15.5713
174.2	-15.6218
174.3	-15.6724
174.4	-15.723
174.5	-15.7736
174.6	-15.8242
174.7	-15.8749
174.8	-15.9255
174.9	-15.9762
175	-16.0268
175.1	-16.0775
175.2	-16.1282
175.3	-16.1789
175.4	-16.2296
175.5	-16.2804
175.6	-16.3311
175.7	-16.3819
175.8	-16.4327
175.9	-16.4835
176	-16.5343
176.1	-16.5851
176.2	-16.6359
176.3	-16.6868
176.4	-16.7377
176.5	-16.7885
176.6	-16.8394
176.7	-16.8903
176.8	-16.9413
176.9	-16.9922
177	-17.0432
177.1	-17.0941
177.2	-17.1451
177.3	-17.1961
177.4	-17.2471
177.5	-17.2982
177.6	-17.3492
177.7	-17.4003
177.8	-17.4514
177.9	-17.5025
178	-17.5536
178.1	-17.6047
178.2	-17.6559
178.3	-17.7071
178.4	-17.7582
178.5	-17.8095
178.6	-17.8607
178.7	-17.9119
178.8	-17.9632
178.9	-18.0145
179	-18.0658
179.1	-18.1171
179.2	-18.1684
179.3	-18.2198
179.4	-18.2712
179.5	-18.3226
179.6	-18.374
179.7	-18.4254
179.8	-18.4769
179.9	-18.5284
180	-18.5799
180.1	-18.6314
180.2	-18.6829
180.3	-18.7345
180.4	-18.7861
180.5	-18.8377
180.6	-18.8894
180.7	-18.941
180.8	-18.9927
180.9	-19.0444
181	-19.0962
181.1	-19.1479
181.2	-19.1997
181.3	-19.2515
181.4	-19.3034
181.5	-19.3553
181.6	-19.4072
181.7	-19.4591
181.8	-19.511
181.9	-19.563
182	-19.615
182.1	-19.6671
182.2	-19.7191
182.3	-19.7712
182.4	-19.8234
182.5	-19.8755
182.6	-19.9277
182.7	-19.9799
182.8	-20.0322
182.9	-20.0845
183	-20.1368
183.1	-20.1891
183.2	-20.2415
183.3	-20.294
183.4	-20.3464
183.5	-20.3989
183.6	-20.4514
183.7	-20.504
183.8	-20.5566
183.9	-20.6093
184	-20.6619
184.1	-20.7147
184.2	-20.7674
184.3	-20.8202
184.4	-20.8731
184.5	-20.9259
184.6	-20.9789
184.7	-21.0318
184.8	-21.0848
184.9	-21.1379
185	-21.191
185.1	-21.2441
185.2	-21.2973
185.3	-21.3505
185.4	-21.4038
185.5	-21.4572
185.6	-21.5105
185.7	-21.564
185.8	-21.6174
185.9	-21.671
186	-21.7245
186.1	-21.7782
186.2	-21.8318
186.3	-21.8856
186.4	-21.9394
186.5	-21.9932
186.6	-22.0471
186.7	-22.1011
186.8	-22.1551
186.9	-22.2091
187	-22.2633
187.1	-22.3174
187.2	-22.3717
187.3	-22.426
187.4	-22.4804
187.5	-22.5348
187.6	-22.5893
187.7	-22.6439
187.8	-22.6985
187.9	-22.7532
188	-22.8079
188.1	-22.8628
188.2	-22.9177
188.3	-22.9726
188.4	-23.0277
188.5	-23.0828
188.6	-23.138
188.7	-23.1932
188.8	-23.2485
188.9	-23.304
189	-23.3594
189.1	-23.415
189.2	-23.4706
189.3	-23.5263
189.4	-23.5821
189.5	-23.638
189.6	-23.694
189.7	-23.75
189.8	-23.8062
189.9	-23.8624
190	-23.9187
190.1	-23.9751
190.2	-24.0315
190.3	-24.0881
190.4	-24.1448
190.5	-24.2015
190.6	-24.2584
190.7	-24.3153
190.8	-24.3723
190.9	-24.4295
191	-24.4867
191.1	-24.544
191.2	-24.6015
191.3	-24.659
191.4	-24.7166
191.5	-24.7744
191.6	-24.8322
191.7	-24.8901
191.8	-24.9482
191.9	-25.0064
192	-25.0646
192.1	-25.123
192.2	-25.1815
192.3	-25.2401
192.4	-25.2988
192.5	-25.3577
192.6	-25.4166
192.7	-25.4757
192.8	-25.5349
192.9	-25.5942
193	-25.6537
193.1	-25.7132
193.2	-25.7729
193.3	-25.8327
193.4	-25.8927
193.5	-25.9528
193.6	-26.013
193.7	-26.0733
193.8	-26.1338
193.9	-26.1944
194	-26.2551
194.1	-26.316
194.2	-26.377
194.3	-26.4382
194.4	-26.4995
194.5	-26.5609
194.6	-26.6225
194.7	-26.6842
194.8	-26.7461
194.9	-26.8081
195	-26.8703
195.1	-26.9326
195.2	-26.9951
195.3	-27.0578
195.4	-27.1206
195.5	-27.1835
195.6	-27.2466
195.7	-27.3099
195.8	-27.3733
195.9	-27.4369
196	-27.5007
196.1	-27.5646
196.2	-27.6287
196.3	-27.6929
196.4	-27.7574
196.5	-27.822
196.6	-27.8867
196.7	-27.9517
196.8	-28.0168
196.9	-28.0821
197	-28.1476
197.1	-28.2133
197.2	-28.2791
197.3	-28.3451
197.4	-28.4113
197.5	-28.4777
197.6	-28.5443
197.7	-28.6111
197.8	-28.6781
197.9	-28.7452
198	-28.8126
198.1	-28.8801
198.2	-28.9479
198.3	-29.0158
198.4	-29.0839
198.5	-29.1523
198.6	-29.2208
198.7	-29.2896
198.8	-29.3585
198.9	-29.4277
199	-29.497
199.1	-29.5666
199.2	-29.6364
199.3	-29.7064
199.4	-29.7766
199.5	-29.847
199.6	-29.9177
199.7	-29.9885
199.8	-30.0596
199.9	-30.1309
200	-30.2024
200.1	-30.2741
200.2	-30.3461
200.3	-30.4183
200.4	-30.4907
200.5	-30.5634
200.6	-30.6362
200.7	-30.7093
200.8	-30.7827
200.9	-30.8563
201	-30.9301
201.1	-31.0041
201.2	-31.0784
201.3	-31.1529
201.4	-31.2277
201.5	-31.3027
201.6	-31.3779
201.7	-31.4534
201.8	-31.5291
201.9	-31.6051
202	-31.6814
202.1	-31.7578
202.2	-31.8346
202.3	-31.9115
202.4	-31.9888
202.5	-32.0663
202.6	-32.144
202.7	-32.222
202.8	-32.3002
202.9	-32.3788
203	-32.4575
203.1	-32.5366
203.2	-32.6158
203.3	-32.6954
203.4	-32.7752
203.5	-32.8553
203.6	-32.9357
203.7	-33.0163
203.8	-33.0972
203.9	-33.1783
204	-33.2598
204.1	-33.3415
204.2	-33.4235
204.3	-33.5057
204.4	-33.5882
204.5	-33.671
204.6	-33.7541
204.7	-33.8375
204.8	-33.9211
204.9	-34.0051
205	-34.0893
205.1	-34.1738
205.2	-34.2585
205.3	-34.3436
205.4	-34.429
205.5	-34.5146
205.6	-34.6005
205.7	-34.6867
205.8	-34.7732
205.9	-34.86
206	-34.9471
206.1	-35.0345
206.2	-35.1222
206.3	-35.2102
206.4	-35.2985
206.5	-35.3871
206.6	-35.4759
206.7	-35.5651
206.8	-35.6546
206.9	-35.7444
207	-35.8345
207.1	-35.9249
207.2	-36.0156
207.3	-36.1066
207.4	-36.1979
207.5	-36.2896
207.6	-36.3815
207.7	-36.4738
207.8	-36.5664
207.9	-36.6592
208	-36.7525
208.1	-36.846
208.2	-36.9398
208.3	-37.034
208.4	-37.1285
208.5	-37.2233
208.6	-37.3184
208.7	-37.4139
208.8	-37.5097
208.9	-37.6058
209	-37.7023
209.1	-37.7991
209.2	-37.8962
209.3	-37.9936
209.4	-38.0914
209.5	-38.1895
209.6	-38.288
209.7	-38.3868
209.8	-38.4859
209.9	-38.5854
210	-38.6852
210.1	-38.7854
210.2	-38.8859
210.3	-38.9868
210.4	-39.088
210.5	-39.1896
210.6	-39.2915
210.7	-39.3938
210.8	-39.4964
210.9	-39.5994
211	-39.7028
211.1	-39.8065
211.2	-39.9106
211.3	-40.015
211.4	-40.1198
211.5	-40.225
211.6	-40.3306
211.7	-40.4365
211.8	-40.5428
211.9	-40.6495
212	-40.7565
212.1	-40.8639
212.2	-40.9717
212.3	-41.0799
212.4	-41.1885
212.5	-41.2975
212.6	-41.4068
212.7	-41.5166
212.8	-41.6267
212.9	-41.7373
213	-41.8482
213.1	-41.9595
213.2	-42.0713
213.3	-42.1834
213.4	-42.2959
213.5	-42.4089
213.6	-42.5223
213.7	-42.636
213.8	-42.7502
213.9	-42.8648
214	-42.9799
214.1	-43.0953
214.2	-43.2112
214.3	-43.3275
214.4	-43.4442
214.5	-43.5614
214.6	-43.679
214.7	-43.7971
214.8	-43.9155
214.9	-44.0345
215	-44.1538
215.1	-44.2736
215.2	-44.3939
215.3	-44.5146
215.4	-44.6358
215.5	-44.7575
215.6	-44.8796
215.7	-45.0021
215.8	-45.1252
215.9	-45.2487
216	-45.3727
216.1	-45.4971
216.2	-45.6221
216.3	-45.7475
216.4	-45.8734
216.5	-45.9998
216.6	-46.1267
216.7	-46.2541
216.8	-46.382
216.9	-46.5104
217	-46.6393
217.1	-46.7688
217.2	-46.8987
217.3	-47.0292
217.4	-47.1601
217.5	-47.2916
217.6	-47.4237
217.7	-47.5562
217.8	-47.6893
217.9	-47.823
218	-47.9571
218.1	-48.0919
218.2	-48.2272
218.3	-48.363
218.4	-48.4994
218.5	-48.6363
218.6	-48.7739
218.7	-48.912
218.8	-49.0507
218.9	-49.1899
219	-49.3297
219.1	-49.4702
219.2	-49.6112
219.3	-49.7528
219.4	-49.895
219.5	-50.0378
219.6	-50.1813
219.7	-50.3253
219.8	-50.47
219.9	-50.6152
220	-50.7611
220.1	-50.9077
220.2	-51.0549
220.3	-51.2027
220.4	-51.3511
220.5	-51.5002
220.6	-51.65
220.7	-51.8004
220.8	-51.9514
220.9	-52.1032
221	-52.2556
221.1	-52.4087
221.2	-52.5624
221.3	-52.7169
221.4	-52.872
221.5	-53.0278
221.6	-53.1843
221.7	-53.3415
221.8	-53.4994
221.9	-53.658
222	-53.8173
222.1	-53.9773
222.2	-54.1381
222.3	-54.2996
222.4	-54.4617
222.5	-54.6247
222.6	-54.7883
222.7	-54.9527
222.8	-55.1178
222.9	-55.2836
223	-55.4502
223.1	-55.6176
223.2	-55.7857
223.3	-55.9545
223.4	-56.1241
223.5	-56.2944
223.6	-56.4655
223.7	-56.6373
223.8	-56.8099
223.9	-56.9833
224	-57.1574
224.1	-57.3322
224.2	-57.5079
224.3	-57.6842
224.4	-57.8614
224.5	-58.0393
224.6	-58.2179
224.7	-58.3973
224.8	-58.5775
224.9	-58.7584
225	-58.94
225.1	-59.1224
225.2	-59.3055
225.3	-59.4894
225.4	-59.674
225.5	-59.8593
225.6	-60.0454
225.7	-60.2321
225.8	-60.4196
225.9	-60.6078
226	-60.7966
226.1	-60.9862
226.2	-61.1764
226.3	-61.3674
226.4	-61.5589
226.5	-61.7511
226.6	-61.944
226.7	-62.1375
226.8	-62.3316
226.9	-62.5263
227	-62.7216
227.1	-62.9175
227.2	-63.1139
227.3	-63.3109
227.4	-63.5084
227.5	-63.7064
227.6	-63.9049
227.7	-64.1039
227.8	-64.3033
227.9	-64.5032
228	-64.7035
228.1	-64.9041
228.2	-65.1052
228.3	-65.3066
228.4	-65.5082
228.5	-65.7102
228.6	-65.9125
228.7	-66.1149
228.8	-66.3176
228.9	-66.5205
229	-66.7235
229.1	-66.9266
229.2	-67.1298
229.3	-67.333
229.4	-67.5363
229.5	-67.7395
229.6	-67.9427
229.7	-68.1458
229.8	-68.3488
229.9	-68.5516
230	-68.7542
230.1	-68.9566
230.2	-69.1587
230.3	-69.3604
230.4	-69.5618
230.5	-69.7628
230.6	-69.9633
230.7	-70.1634
230.8	-70.3629
230.9	-70.5618
231	-70.7601
231.1	-70.9578
231.2	-71.1547
231.3	-71.3509
231.4	-71.5463
231.5	-71.7409
231.6	-71.9346
231.7	-72.1273
231.8	-72.3191
231.9	-72.5099
232	-72.6996
232.1	-72.8882
232.2	-73.0757
232.3	-73.262
232.4	-73.447
232.5	-73.6308
232.6	-73.8133
232.7	-73.9944
232.8	-74.1742
232.9	-74.3526
233	-74.5294
233.1	-74.7048
233.2	-74.8787
233.3	-75.051
233.4	-75.2217
233.5	-75.3908
233.6	-75.5583
233.7	-75.724
233.8	-75.8881
233.9	-76.0504
234	-76.211
234.1	-76.3698
234.2	-76.5267
234.3	-76.6819
234.4	-76.8352
234.5	-76.9866
234.6	-77.1362
234.7	-77.2838
234.8	-77.4296
234.9	-77.5734
235	-77.7153
235.1	-77.8553
235.2	-77.9933
235.3	-78.1294
235.4	-78.2635
235.5	-78.3957
235.6	-78.5259
235.7	-78.6541
235.8	-78.7803
235.9	-78.9046
236	-79.027
236.1	-79.1473
236.2	-79.2658
236.3	-79.3823
236.4	-79.4968
236.5	-79.6094
236.6	-79.7201
236.7	-79.8289
236.8	-79.9358
236.9	-80.0408
237	-80.1439
237.1	-80.2452
237.2	-80.3446
237.3	-80.4422
237.4	-80.538
237.5	-80.632
237.6	-80.7242
237.7	-80.8146
237.8	-80.9033
237.9	-80.9903
238	-81.0756
238.1	-81.1592
238.2	-81.2411
238.3	-81.3214
238.4	-81.4001
238.5	-81.4771
238.6	-81.5526
238.7	-81.6265
238.8	-81.6989
238.9	-81.7698
239	-81.8392
239.1	-81.9071
239.2	-81.9736
239.3	-82.0387
239.4	-82.1023
239.5	-82.1646
239.6	-82.2255
239.7	-82.2851
239.8	-82.3434
239.9	-82.4004
240	-82.4562
240.1	-82.5106
240.2	-82.5639
240.3	-82.616
240.4	-82.6669
240.5	-82.7166
240.6	-82.7652
240.7	-82.8127
240.8	-82.8592
240.9	-82.9045
241	-82.9488
241.1	-82.9921
241.2	-83.0343
241.3	-83.0756
241.4	-83.1159
241.5	-83.1553
241.6	-83.1938
241.7	-83.2313
241.8	-83.2679
241.9	-83.3037
242	-83.3386
242.1	-83.3727
242.2	-83.406
242.3	-83.4385
242.4	-83.4702
242.5	-83.5012
242.6	-83.5313
242.7	-83.5608
242.8	-83.5896
242.9	-83.6176
243	-83.645
243.1	-83.6717
243.2	-83.6978
243.3	-83.7232
243.4	-83.748
243.5	-83.7722
243.6	-83.7958
243.7	-83.8188
243.8	-83.8413
243.9	-83.8632
244	-83.8845
244.1	-83.9054
244.2	-83.9257
244.3	-83.9455
244.4	-83.9649
244.5	-83.9837
244.6	-84.0021
244.7	-84.0201
244.8	-84.0376
244.9	-84.0546
245	-84.0712
245.1	-84.0875
245.2	-84.1033
245.3	-84.1187
245.4	-84.1338
245.5	-84.1484
245.6	-84.1627
245.7	-84.1767
245.8	-84.1903
245.9	-84.2036
246	-84.2165
246.1	-84.2291
246.2	-84.2414
246.3	-84.2534
246.4	-84.2651
246.5	-84.2766
246.6	-84.2877
246.7	-84.2986
246.8	-84.3091
246.9	-84.3195
247	-84.3295
247.1	-84.3394
247.2	-84.3489
247.3	-84.3583
247.4	-84.3674
247.5	-84.3763
247.6	-84.385
247.7	-84.3934
247.8	-84.4017
247.9	-84.4097
248	-84.4176
248.1	-84.4252
248.2	-84.4327
248.3	-84.44
248.4	-84.4471
248.5	-84.4541
248.6	-84.4609
248.7	-84.4675
248.8	-84.4739
248.9	-84.4802
249	-84.4864
249.1	-84.4924
249.2	-84.4982
249.3	-84.5039
249.4	-84.5095
249.5	-84.515
249.6	-84.5203
249.7	-84.5255
249.8	-84.5306
249.9	-84.5355
250	-84.5403
250.1	-84.5451
250.2	-84.5497
250.3	-84.5542
250.4	-84.5586
250.5	-84.5629
250.6	-84.5671
250.7	-84.5712
250.8	-84.5752
250.9	-84.5791
251	-84.583
251.1	-84.5867
251.2	-84.5904
251.3	-84.594
251.4	-84.5975
251.5	-84.6009
251.6	-84.6042
251.7	-84.6075
251.8	-84.6107
251.9	-84.6138
252	-84.6169
252.1	-84.6199
252.2	-84.6228
252.3	-84.6257
252.4	-84.6285
252.5	-84.6312
252.6	-84.6339
252.7	-84.6366
252.8	-84.6392
252.9	-84.6417
253	-84.6442
253.1	-84.6466
253.2	-84.649
253.3	-84.6513
253.4	-84.6536
253.5	-84.6558
253.6	-84.658
253.7	-84.6601
253.8	-84.6623
253.9	-84.6643
254	-84.6663
254.1	-84.6683
254.2	-84.6703
254.3	-84.6722
254.4	-84.6741
254.5	-84.6759
254.6	-84.6777
254.7	-84.6795
254.8	-84.6813
254.9	-84.683
255	-84.6846
255.1	-84.6863
255.2	-84.6879
255.3	-84.6895
255.4	-84.6911
255.5	-84.6926
255.6	-84.6942
255.7	-84.6956
255.8	-84.6971
255.9	-84.6986
256	-84.7
256.1	-84.7014
256.2	-84.7027
256.3	-84.7041
256.4	-84.7054
256.5	-84.7068
256.6	-84.708
256.7	-84.7093
256.8	-84.7106
256.9	-84.7118
257	-84.713
257.1	-84.7142
257.2	-84.7154
257.3	-84.7166
257.4	-84.7177
257.5	-84.7189
257.6	-84.72
257.7	-84.7211
257.8	-84.7222
257.9	-84.7233
258	-84.7243
258.1	-84.7254
258.2	-84.7264
258.3	-84.7275
258.4	-84.7285
258.5	-84.7295
258.6	-84.7305
258.7	-84.7314
258.8	-84.7324
258.9	-84.7334
259	-84.7343
259.1	-84.7352
259.2	-84.7362
259.3	-84.7371
259.4	-84.738
259.5	-84.7389
259.6	-84.7398
259.7	-84.7407
259.8	-84.7415
259.9	-84.7424
260	-84.7433
260.1	-84.7441
260.2	-84.7449
260.3	-84.7458
260.4	-84.7466
260.5	-84.7474
260.6	-84.7482
260.7	-84.749
260.8	-84.7498
260.9	-84.7506
261	-84.7514
261.1	-84.7522
261.2	-84.753
261.3	-84.7537
261.4	-84.7545
261.5	-84.7552
261.6	-84.756
261.7	-84.7567
261.8	-84.7575
261.9	-84.7582
262	-84.759
262.1	-84.7597
262.2	-84.7604
262.3	-84.7611
262.4	-84.7618
262.5	-84.7625
262.6	-84.7632
262.7	-84.7639
262.8	-84.7646
262.9	-84.7653
263	-84.766
263.1	-84.7667
263.2	-84.7674
263.3	-84.7681
263.4	-84.7687
263.5	-84.7694
263.6	-84.7701
263.7	-84.7707
263.8	-84.7714
263.9	-84.772
264	-84.7727
264.1	-84.7733
264.2	-84.774
264.3	-84.7746
264.4	-84.7753
264.5	-84.7759
264.6	-84.7766
264.7	-84.7772
264.8	-84.7778
264.9	-84.7785
265	-84.7791
265.1	-84.7797
265.2	-84.7803
265.3	-84.781
265.4	-84.7816
265.5	-84.7822
265.6	-84.7828
265.7	-84.7834
265.8	-84.784
265.9	-84.7846
266	-84.7852
266.1	-84.7859
266.2	-84.7865
266.3	-84.7871
266.4	-84.7877
266.5	-84.7883
266.6	-84.7888
266.7	-84.7894
266.8	-84.79
266.9	-84.7906
267	-84.7912
267.1	-84.7918
267.2	-84.7924
267.3	-84.793
267.4	-84.7936
267.5	-84.7941
267.6	-84.7947
267.7	-84.7953
267.8	-84.7959
267.9	-84.7965
268	-84.797
268.1	-84.7976
268.2	-84.7982
268.3	-84.7987
268.4	-84.7993
268.5	-84.7999
268.6	-84.8005
268.7	-84.801
268.8	-84.8016
268.9	-84.8022
269	-84.8027
269.1	-84.8033
269.2	-84.8038
269.3	-84.8044
269.4	-84.805
269.5	-84.8055
269.6	-84.8061
269.7	-84.8066
269.8	-84.8072
269.9	-84.8077
270	-84.8083
270.1	-84.8088
270.2	-84.8094
270.3	-84.81
270.4	-84.8105
270.5	-84.8111
270.6	-84.8116
270.7	-84.8121
270.8	-84.8127
270.9	-84.8132
271	-84.8138
271.1	-84.8143
271.2	-84.8149
271.3	-84.8154
271.4	-84.816
271.5	-84.8165
271.6	-84.817
271.7	-84.8176
271.8	-84.8181
271.9	-84.8187
272	-84.8192
272.1	-84.8197
272.2	-84.8203
272.3	-84.8208
272.4	-84.8213
272.5	-84.8219
272.6	-84.8224
272.7	-84.8229
272.8	-84.8235
272.9	-84.824
273	-84.8245
273.1	-84.8251
273.2	-84.8256
273.3	-84.8261
273.4	-84.8267
273.5	-84.8272
273.6	-84.8277
273.7	-84.8282
273.8	-84.8288
273.9	-84.8293
274	-84.8298
274.1	-84.8303
274.2	-84.8309
274.3	-84.8314
274.4	-84.8319
274.5	-84.8324
274.6	-84.833
274.7	-84.8335
274.8	-84.834
274.9	-84.8345
275	-84.835
275.1	-84.8356
275.2	-84.8361
275.3	-84.8366
275.4	-84.8371
275.5	-84.8376
275.6	-84.8382
275.7	-84.8387
275.8	-84.8392
275.9	-84.8397
276	-84.8402
276.1	-84.8407
276.2	-84.8413
276.3	-84.8418
276.4	-84.8423
276.5	-84.8428
276.6	-84.8433
276.7	-84.8438
276.8	-84.8443
276.9	-84.8448
277	-84.8453
277.1	-84.8459
277.2	-84.8464
277.3	-84.8469
277.4	-84.8474
277.5	-84.8479
277.6	-84.8484
277.7	-84.8489
277.8	-84.8494
277.9	-84.8499
278	-84.8504
278.1	-84.8509
278.2	-84.8514
278.3	-84.8519
278.4	-84.8524
278.5	-84.853
278.6	-84.8535
278.7	-84.854
278.8	-84.8545
278.9	-84.855
279	-84.8555
279.1	-84.856
279.2	-84.8565
279.3	-84.857
279.4	-84.8575
279.5	-84.858
279.6	-84.8585
279.7	-84.859
279.8	-84.8595
279.9	-84.86
280	-84.8605
280.1	-84.861
280.2	-84.8615
280.3	-84.862
280.4	-84.8624
280.5	-84.8629
280.6	-84.8634
280.7	-84.8639
280.8	-84.8644
280.9	-84.8649
281	-84.8654
281.1	-84.8659
281.2	-84.8664
281.3	-84.8669
281.4	-84.8674
281.5	-84.8679
281.6	-84.8684
281.7	-84.8689
281.8	-84.8694
281.9	-84.8698
282	-84.8703
282.1	-84.8708
282.2	-84.8713
282.3	-84.8718
282.4	-84.8723
282.5	-84.8728
282.6	-84.8733
282.7	-84.8738
282.8	-84.8742
282.9	-84.8747
283	-84.8752
283.1	-84.8757
283.2	-84.8762
283.3	-84.8767
283.4	-84.8772
283.5	-84.8776
283.6	-84.8781
283.7	-84.8786
283.8	-84.8791
283.9	-84.8796
284	-84.8801
284.1	-84.8805
284.2	-84.881
284.3	-84.8815
284.4	-84.882
284.5	-84.8825
284.6	-84.883
284.7	-84.8834
284.8	-84.8839
284.9	-84.8844
285	-84.8849
285.1	-84.8854
285.2	-84.8858
285.3	-84.8863
285.4	-84.8868
285.5	-84.8873
285.6	-84.8877
285.7	-84.8882
285.8	-84.8887
285.9	-84.8892
286	-84.8897
286.1	-84.8901
286.2	-84.8906
286.3	-84.8911
286.4	-84.8916
286.5	-84.892
286.6	-84.8925
286.7	-84.893
286.8	-84.8934
286.9	-84.8939
287	-84.8944
287.1	-84.8949
287.2	-84.8953
287.3	-84.8958
287.4	-84.8963
287.5	-84.8968
287.6	-84.8972
287.7	-84.8977
287.8	-84.8982
287.9	-84.8986
288	-84.8991
288.1	-84.8996
288.2	-84.9
288.3	-84.9005
288.4	-84.901
288.5	-84.9014
288.6	-84.9019
288.7	-84.9024
288.8	-84.9028
288.9	-84.9033
289	-84.9038
289.1	-84.9042
289.2	-84.9047
289.3	-84.9052
289.4	-84.9056
289.5	-84.9061
289.6	-84.9066
289.7	-84.907
289.8	-84.9075
289.9	-84.908
290	-84.9084
290.1	-84.9089
290.2	-84.9093
290.3	-84.9098
290.4	-84.9103
290.5	-84.9107
290.6	-84.9112
290.7	-84.9117
290.8	-84.9121
290.9	-84.9126
291	-84.913
291.1	-84.9135
291.2	-84.914
291.3	-84.9144
291.4	-84.9149
291.5	-84.9153
291.6	-84.9158
291.7	-84.9162
291.8	-84.9167
291.9	-84.9172
292	-84.9176
292.1	-84.9181
292.2	-84.9185
292.3	-84.919
292.4	-84.9194
292.5	-84.9199
292.6	-84.9203
292.7	-84.9208
292.8	-84.9213
292.9	-84.9217
293	-84.9222
293.1	-84.9226
293.2	-84.9231
293.3	-84.9235
293.4	-84.924
293.5	-84.9244
293.6	-84.9249
293.7	-84.9253
293.8	-84.9258
293.9	-84.9262
294	-84.9267
294.1	-84.9271
294.2	-84.9276
294.3	-84.928
294.4	-84.9285
294.5	-84.9289
294.6	-84.9294
294.7	-84.9298
294.8	-84.9303
294.9	-84.9307
295	-84.9312
295.1	-84.9316
295.2	-84.9321
295.3	-84.9325
295.4	-84.933
295.5	-84.9334
295.6	-84.9339
295.7	-84.9343
295.8	-84.9347
295.9	-84.9352
296	-84.9356
296.1	-84.9361
296.2	-84.9365
296.3	-84.937
296.4	-84.9374
296.5	-84.9379
296.6	-84.9383
296.7	-84.9387
296.8	-84.9392
296.9	-84.9396
297	-84.9401
297.1	-84.9405
297.2	-84.9409
297.3	-84.9414
297.4	-84.9418
297.5	-84.9423
297.6	-84.9427
297.7	-84.9431
297.8	-84.9436
297.9	-84.944
298	-84.9445
298.1	-84.9449
298.2	-84.9453
298.3	-84.9458
298.4	-84.9462
298.5	-84.9467
298.6	-84.9471
298.7	-84.9475
298.8	-84.948
298.9	-84.9484
299	-84.9488
299.1	-84.9493
299.2	-84.9497
299.3	-84.9501
299.4	-84.9506
299.5	-84.951
299.6	-84.9514
299.7	-84.9519
299.8	-84.9523
299.9	-84.9527
300	-84.9532
300.1	-84.9536
300.2	-84.954
300.3	-84.9545
300.4	-84.9549
300.5	-84.9553
300.6	-84.9558
300.7	-84.9562
300.8	-84.9566
300.9	-84.9571
301	-84.9575
301.1	-84.9579
301.2	-84.9584
301.3	-84.9588
301.4	-84.9592
301.5	-84.9596
301.6	-84.9601
301.7	-84.9605
301.8	-84.9609
301.9	-84.9614
302	-84.9618
302.1	-84.9622
302.2	-84.9626
302.3	-84.9631
302.4	-84.9635
302.5	-84.9639
302.6	-84.9643
302.7	-84.9648
302.8	-84.9652
302.9	-84.9656
303	-84.966
303.1	-84.9665
303.2	-84.9669
303.3	-84.9673
303.4	-84.9677
303.5	-84.9682
303.6	-84.9686
303.7	-84.969
303.8	-84.9694
303.9	-84.9699
304	-84.9703
304.1	-84.9707
304.2	-84.9711
304.3	-84.9716
304.4	-84.972
304.5	-84.9724
304.6	-84.9728
304.7	-84.9732
304.8	-84.9737
304.9	-84.9741
305	-84.9745
305.1	-84.9749
305.2	-84.9753
305.3	-84.9758
305.4	-84.9762
305.5	-84.9766
305.6	-84.977
305.7	-84.9774
305.8	-84.9778
305.9	-84.9783
306	-84.9787
306.1	-84.9791
306.2	-84.9795
306.3	-84.9799
306.4	-84.9803
306.5	-84.9808
306.6	-84.9812
306.7	-84.9816
306.8	-84.982
306.9	-84.9824
307	-84.9828
307.1	-84.9832
307.2	-84.9837
307.3	-84.9841
307.4	-84.9845
307.5	-84.9849
307.6	-84.9853
307.7	-84.9857
307.8	-84.9861
307.9	-84.9866
308	-84.987
308.1	-84.9874
308.2	-84.9878
308.3	-84.9882
308.4	-84.9886
308.5	-84.989
308.6	-84.9894
308.7	-84.9898
308.8	-84.9902
308.9	-84.9907
309	-84.9911
309.1	-84.9915
309.2	-84.9919
309.3	-84.9923
309.4	-84.9927
309.5	-84.9931
309.6	-84.9935
309.7	-84.9939
309.8	-84.9943
309.9	-84.9947
310	-84.9951
310.1	-84.9956
310.2	-84.996
310.3	-84.9964
310.4	-84.9968
310.5	-84.9972
310.6	-84.9976
310.7	-84.998
310.8	-84.9984
310.9	-84.9988
311	-84.9992
311.1	-84.9996
311.2	-85
311.3	-85.0004
311.4	-85.0008
311.5	-85.0012
311.6	-85.0016
311.7	-85.002
311.8	-85.0024
311.9	-85.0028
312	-85.0032
312.1	-85.0036
312.2	-85.004
312.3	-85.0044
312.4	-85.0048
312.5	-85.0052
312.6	-85.0056
312.7	-85.006
312.8	-85.0064
312.9	-85.0068
313	-85.0072
313.1	-85.0076
313.2	-85.008
313.3	-85.0084
313.4	-85.0088
313.5	-85.0092
313.6	-85.0096
313.7	-85.01
313.8	-85.0104
313.9	-85.0108
314	-85.0112
314.1	-85.0116
314.2	-85.012
314.3	-85.0124
314.4	-85.0128
314.5	-85.0132
314.6	-85.0136
314.7	-85.014
314.8	-85.0144
314.9	-85.0148
315	-85.0152
315.1	-85.0156
315.2	-85.016
315.3	-85.0164
315.4	-85.0168
315.5	-85.0171
315.6	-85.0175
315.7	-85.0179
315.8	-85.0183
315.9	-85.0187
316	-85.0191
316.1	-85.0195
316.2	-85.0199
316.3	-85.0203
316.4	-85.0207
316.5	-85.0211
316.6	-85.0215
316.7	-85.0218
316.8	-85.0222
316.9	-85.0226
317	-85.023
317.1	-85.0234
317.2	-85.0238
317.3	-85.0242
317.4	-85.0246
317.5	-85.025
317.6	-85.0254
317.7	-85.0257
317.8	-85.0261
317.9	-85.0265
318	-85.0269
318.1	-85.0273
318.2	-85.0277
318.3	-85.0281
318.4	-85.0285
318.5	-85.0288
318.6	-85.0292
318.7	-85.0296
318.8	-85.03
318.9	-85.0304
319	-85.0308
319.1	-85.0312
319.2	-85.0315
319.3	-85.0319
319.4	-85.0323
319.5	-85.0327
319.6	-85.0331
319.7	-85.0335
319.8	-85.0338
319.9	-85.0342
320	-85.0346
320.1	-85.035
320.2	-85.0354
320.3	-85.0358
320.4	-85.0361
320.5	-85.0365
320.6	-85.0369
320.7	-85.0373
320.8	-85.0377
320.9	-85.038
321	-85.0384
321.1	-85.0388
321.2	-85.0392
321.3	-85.0396
321.4	-85.0399
321.5	-85.0403
321.6	-85.0407
321.7	-85.0411
321.8	-85.0415
321.9	-85.0418
322	-85.0422
322.1	-85.0426
322.2	-85.043
322.3	-85.0434
322.4	-85.0437
322.5	-85.0441
322.6	-85.0445
322.7	-85.0449
322.8	-85.0452
322.9	-85.0456
323	-85.046
323.1	-85.0464
323.2	-85.0467
323.3	-85.0471
323.4	-85.0475
323.5	-85.0479
323.6	-85.0482
323.7	-85.0486
323.8	-85.049
323.9	-85.0494
324	-85.0497
324.1	-85.0501
324.2	-85.0505
324.3	-85.0509
324.4	-85.0512
324.5	-85.0516
324.6	-85.052
324.7	-85.0524
324.8	-85.0527
324.9	-85.0531
325	-85.0535
325.1	-85.0538
325.2	-85.0542
325.3	-85.0546
325.4	-85.055
325.5	-85.0553
325.6	-85.0557
325.7	-85.0561
325.8	-85.0564
325.9	-85.0568
326	-85.0572
326.1	-85.0575
326.2	-85.0579
326.3	-85.0583
326.4	-85.0587
326.5	-85.059
326.6	-85.0594
326.7	-85.0598
326.8	-85.0601
326.9	-85.0605
327	-85.0609
327.1	-85.0612
327.2	-85.0616
327.3	-85.062
327.4	-85.0623
327.5	-85.0627
327.6	-85.0631
327.7	-85.0634
327.8	-85.0638
327.9	-85.0642
328	-85.0645
328.1	-85.0649
328.2	-85.0653
328.3	-85.0656
328.4	-85.066
328.5	-85.0663
328.6	-85.0667
328.7	-85.0671
328.8	-85.0674
328.9	-85.0678
329	-85.0682
329.1	-85.0685
329.2	-85.0689
329.3	-85.0693
329.4	-85.0696
329.5	-85.07
329.6	-85.0703
329.7	-85.0707
329.8	-85.0711
329.9	-85.0714
330	-85.0718
330.1	-85.0721
330.2	-85.0725
330.3	-85.0729
330.4	-85.0732
330.5	-85.0736
330.6	-85.0739
330.7	-85.0743
330.8	-85.0747
330.9	-85.075
331	-85.0754
331.1	-85.0757
331.2	-85.0761
331.3	-85.0765
331.4	-85.0768
331.5	-85.0772
331.6	-85.0775
331.7	-85.0779
331.8	-85.0783
331.9	-85.0786
332	-85.079
332.1	-85.0793
332.2	-85.0797
332.3	-85.08
332.4	-85.0804
332.5	-85.0807
332.6	-85.0811
332.7	-85.0815
332.8	-85.0818
332.9	-85.0822
333	-85.0825
333.1	-85.0829
333.2	-85.0832
333.3	-85.0836
333.4	-85.0839
333.5	-85.0843
333.6	-85.0847
333.7	-85.085
333.8	-85.0854
333.9	-85.0857
334	-85.0861
334.1	-85.0864
334.2	-85.0868
334.3	-85.0871
334.4	-85.0875
334.5	-85.0878
334.6	-85.0882
334.7	-85.0885
334.8	-85.0889
334.9	-85.0892
335	-85.0896
335.1	-85.0899
335.2	-85.0903
335.3	-85.0906
335.4	-85.091
335.5	-85.0913
335.6	-85.0917
335.7	-85.092
335.8	-85.0924
335.9	-85.0927
336	-85.0931
336.1	-85.0934
336.2	-85.0938
336.3	-85.0941
336.4	-85.0945
336.5	-85.0948
336.6	-85.0952
336.7	-85.0955
336.8	-85.0959
336.9	-85.0962
337	-85.0966
337.1	-85.0969
337.2	-85.0973
337.3	-85.0976
337.4	-85.0979
337.5	-85.0983
337.6	-85.0986
337.7	-85.099
337.8	-85.0993
337.9	-85.0997
338	-85.1
338.1	-85.1004
338.2	-85.1007
338.3	-85.1011
338.4	-85.1014
338.5	-85.1017
338.6	-85.1021
338.7	-85.1024
338.8	-85.1028
338.9	-85.1031
339	-85.1035
339.1	-85.1038
339.2	-85.1041
339.3	-85.1045
339.4	-85.1048
339.5	-85.1052
339.6	-85.1055
339.7	-85.1059
339.8	-85.1062
339.9	-85.1065
340	-85.1069
340.1	-85.1072
340.2	-85.1076
340.3	-85.1079
340.4	-85.1082
340.5	-85.1086
340.6	-85.1089
340.7	-85.1093
340.8	-85.1096
340.9	-85.1099
341	-85.1103
341.1	-85.1106
341.2	-85.111
341.3	-85.1113
341.4	-85.1116
341.5	-85.112
341.6	-85.1123
341.7	-85.1126
341.8	-85.113
341.9	-85.1133
342	-85.1137
342.1	-85.114
342.2	-85.1143
342.3	-85.1147
342.4	-85.115
342.5	-85.1153
342.6	-85.1157
342.7	-85.116
342.8	-85.1164
342.9	-85.1167
343	-85.117
343.1	-85.1174
343.2	-85.1177
343.3	-85.118
343.4	-85.1184
343.5	-85.1187
343.6	-85.119
343.7	-85.1194
343.8	-85.1197
343.9	-85.12
344	-85.1204
344.1	-85.1207
344.2	-85.121
344.3	-85.1214
344.4	-85.1217
344.5	-85.122
344.6	-85.1224
344.7	-85.1227
344.8	-85.123
344.9	-85.1234
345	-85.1237
345.1	-85.124
345.2	-85.1244
345.3	-85.1247
345.4	-85.125
345.5	-85.1253
345.6	-85.1257
345.7	-85.126
345.8	-85.1263
345.9	-85.1267
346	-85.127
346.1	-85.1273
346.2	-85.1277
346.3	-85.128
346.4	-85.1283
346.5	-85.1286
346.6	-85.129
346.7	-85.1293
346.8	-85.1296
346.9	-85.13
347	-85.1303
347.1	-85.1306
347.2	-85.1309
347.3	-85.1313
347.4	-85.1316
347.5	-85.1319
347.6	-85.1322
347.7	-85.1326
347.8	-85.1329
347.9	-85.1332
348	-85.1336
348.1	-85.1339
348.2	-85.1342
348.3	-85.1345
348.4	-85.1349
348.5	-85.1352
348.6	-85.1355
348.7	-85.1358
348.8	-85.1362
348.9	-85.1365
349	-85.1368
349.1	-85.1371
349.2	-85.1375
349.3	-85.1378
349.4	-85.1381
349.5	-85.1384
349.6	-85.1387
349.7	-85.1391
349.8	-85.1394
349.9	-85.1397
350	-85.14
350.1	-85.1404
350.2	-85.1407
350.3	-85.141
350.4	-85.1413
350.5	-85.1416
350.6	-85.142
350.7	-85.1423
350.8	-85.1426
350.9	-85.1429
351	-85.1433
351.1	-85.1436
351.2	-85.1439
351.3	-85.1442
351.4	-85.1445
351.5	-85.1449
351.6	-85.1452
351.7	-85.1455
351.8	-85.1458
351.9	-85.1461
352	-85.1464
352.1	-85.1468
352.2	-85.1471
352.3	-85.1474
352.4	-85.1477
352.5	-85.148
352.6	-85.1484
352.7	-85.1487
352.8	-85.149
352.9	-85.1493
353	-85.1496
353.1	-85.1499
353.2	-85.1503
353.3	-85.1506
353.4	-85.1509
353.5	-85.1512
353.6	-85.1515
353.7	-85.1518
353.8	-85.1522
353.9	-85.1525
354	-85.1528
354.1	-85.1531
354.2	-85.1534
354.3	-85.1537
354.4	-85.1541
354.5	-85.1544
354.6	-85.1547
354.7	-85.155
354.8	-85.1553
354.9	-85.1556
355	-85.1559
355.1	-85.1562
355.2	-85.1566
355.3	-85.1569
355.4	-85.1572
355.5	-85.1575
355.6	-85.1578
355.7	-85.1581
355.8	-85.1584
355.9	-85.1588
356	-85.1591
356.1	-85.1594
356.2	-85.1597
356.3	-85.16
356.4	-85.1603
356.5	-85.1606
356.6	-85.1609
356.7	-85.1612
356.8	-85.1616
356.9	-85.1619
357	-85.1622
357.1	-85.1625
357.2	-85.1628
357.3	-85.1631
357.4	-85.1634
357.5	-85.1637
357.6	-85.164
357.7	-85.1643
357.8	-85.1646
357.9	-85.165
358	-85.1653
358.1	-85.1656
358.2	-85.1659
358.3	-85.1662
358.4	-85.1665
358.5	-85.1668
358.6	-85.1671
358.7	-85.1674
358.8	-85.1677
358.9	-85.168
359	-85.1683
359.1	-85.1686
359.2	-85.169
359.3	-85.1693
359.4	-85.1696
359.5	-85.1699
359.6	-85.1702
359.7	-85.1705
359.8	-85.1708
359.9	-85.1711
360	-85.1714
360.1	-85.1717
360.2	-85.172
360.3	-85.1723
360.4	-85.1726
360.5	-85.1729
360.6	-85.1732
360.7	-85.1735
360.8	-85.1738
360.9	-85.1741
361	-85.1744
361.1	-85.1747
361.2	-85.1751
361.3	-85.1754
361.4	-85.1757
361.5	-85.176
361.6	-85.1763
361.7	-85.1766
361.8	-85.1769
361.9	-85.1772
362	-85.1775
362.1	-85.1778
362.2	-85.1781
362.3	-85.1784
362.4	-85.1787
362.5	-85.179
362.6	-85.1793
362.7	-85.1796
362.8	-85.1799
362.9	-85.1802
363	-85.1805
363.1	-85.1808
363.2	-85.1811
363.3	-85.1814
363.4	-85.1817
363.5	-85.182
363.6	-85.1823
363.7	-85.1826
363.8	-85.1829
363.9	-85.1832
364	-85.1835
364.1	-85.1838
364.2	-85.1841
364.3	-85.1844
364.4	-85.1847
364.5	-85.185
364.6	-85.1853
364.7	-85.1856
364.8	-85.1859
364.9	-85.1862
365	-85.1865
365.1	-85.1867
365.2	-85.187
365.3	-85.1873
365.4	-85.1876
365.5	-85.1879
365.6	-85.1882
365.7	-85.1885
365.8	-85.1888
365.9	-85.1891
366	-85.1894
366.1	-85.1897
366.2	-85.19
366.3	-85.1903
366.4	-85.1906
366.5	-85.1909
366.6	-85.1912
366.7	-85.1915
366.8	-85.1918
366.9	-85.1921
367	-85.1924
367.1	-85.1926
367.2	-85.1929
367.3	-85.1932
367.4	-85.1935
367.5	-85.1938
367.6	-85.1941
367.7	-85.1944
367.8	-85.1947
367.9	-85.195
368	-85.1953
368.1	-85.1956
368.2	-85.1959
368.3	-85.1962
368.4	-85.1965
368.5	-85.1967
368.6	-85.197
368.7	-85.1973
368.8	-85.1976
368.9	-85.1979
369	-85.1982
369.1	-85.1985
369.2	-85.1988
369.3	-85.1991
369.4	-85.1994
369.5	-85.1996
369.6	-85.1999
369.7	-85.2002
369.8	-85.2005
369.9	-85.2008
370	-85.2011
370.1	-85.2014
370.2	-85.2017
370.3	-85.202
370.4	-85.2022
370.5	-85.2025
370.6	-85.2028
370.7	-85.2031
370.8	-85.2034
370.9	-85.2037
371	-85.204
371.1	-85.2043
371.2	-85.2046
371.3	-85.2048
371.4	-85.2051
371.5	-85.2054
371.6	-85.2057
371.7	-85.206
371.8	-85.2063
371.9	-85.2066
372	-85.2068
372.1	-85.2071
372.2	-85.2074
372.3	-85.2077
372.4	-85.208
372.5	-85.2083
372.6	-85.2086
372.7	-85.2088
372.8	-85.2091
372.9	-85.2094
373	-85.2097
373.1	-85.21
373.2	-85.2103
373.3	-85.2105
373.4	-85.2108
373.5	-85.2111
373.6	-85.2114
373.7	-85.2117
373.8	-85.212
373.9	-85.2122
374	-85.2125
374.1	-85.2128
374.2	-85.2131
374.3	-85.2134
374.4	-85.2137
374.5	-85.2139
374.6	-85.2142
374.7	-85.2145
374.8	-85.2148
374.9	-85.2151
375	-85.2153
375.1	-85.2156
375.2	-85.2159
375.3	-85.2162
375.4	-85.2165
375.5	-85.2168
375.6	-85.217
375.7	-85.2173
375.8	-85.2176
375.9	-85.2179
376	-85.2182
376.1	-85.2184
376.2	-85.2187
376.3	-85.219
376.4	-85.2193
376.5	-85.2195
376.6	-85.2198
376.7	-85.2201
376.8	-85.2204
376.9	-85.2207
377	-85.2209
377.1	-85.2212
377.2	-85.2215
377.3	-85.2218
377.4	-85.2221
377.5	-85.2223
377.6	-85.2226
377.7	-85.2229
377.8	-85.2232
377.9	-85.2234
378	-85.2237
378.1	-85.224
378.2	-85.2243
378.3	-85.2245
378.4	-85.2248
378.5	-85.2251
378.6	-85.2254
378.7	-85.2257
378.8	-85.2259
378.9	-85.2262
379	-85.2265
379.1	-85.2268
379.2	-85.227
379.3	-85.2273
379.4	-85.2276
379.5	-85.2279
379.6	-85.2281
379.7	-85.2284
379.8	-85.2287
379.9	-85.2289
380	-85.2292
380.1	-85.2295
380.2	-85.2298
380.3	-85.23
380.4	-85.2303
380.5	-85.2306
380.6	-85.2309
380.7	-85.2311
380.8	-85.2314
380.9	-85.2317
381	-85.232
381.1	-85.2322
381.2	-85.2325
381.3	-85.2328
381.4	-85.233
381.5	-85.2333
381.6	-85.2336
381.7	-85.2339
381.8	-85.2341
381.9	-85.2344
382	-85.2347
382.1	-85.2349
382.2	-85.2352
382.3	-85.2355
382.4	-85.2358
382.5	-85.236
382.6	-85.2363
382.7	-85.2366
382.8	-85.2368
382.9	-85.2371
383	-85.2374
383.1	-85.2376
383.2	-85.2379
383.3	-85.2382
383.4	-85.2384
383.5	-85.2387
383.6	-85.239
383.7	-85.2393
383.8	-85.2395
383.9	-85.2398
384	-85.2401
384.1	-85.2403
384.2	-85.2406
384.3	-85.2409
384.4	-85.2411
384.5	-85.2414
384.6	-85.2417
384.7	-85.2419
384.8	-85.2422
384.9	-85.2425
385	-85.2427
385.1	-85.243
385.2	-85.2433
385.3	-85.2435
385.4	-85.2438
385.5	-85.2441
385.6	-85.2443
385.7	-85.2446
385.8	-85.2449
385.9	-85.2451
386	-85.2454
386.1	-85.2457
386.2	-85.2459
386.3	-85.2462
386.4	-85.2465
386.5	-85.2467
386.6	-85.247
386.7	-85.2472
386.8	-85.2475
386.9	-85.2478
387	-85.248
387.1	-85.2483
387.2	-85.2486
387.3	-85.2488
387.4	-85.2491
387.5	-85.2494
387.6	-85.2496
387.7	-85.2499
387.8	-85.2501
387.9	-85.2504
388	-85.2507
388.1	-85.2509
388.2	-85.2512
388.3	-85.2515
388.4	-85.2517
388.5	-85.252
388.6	-85.2522
388.7	-85.2525
388.8	-85.2528
388.9	-85.253
389	-85.2533
389.1	-85.2535
389.2	-85.2538
389.3	-85.2541
389.4	-85.2543
389.5	-85.2546
389.6	-85.2548
389.7	-85.2551
389.8	-85.2554
389.9	-85.2556
390	-85.2559
390.1	-85.2561
390.2	-85.2564
390.3	-85.2567
390.4	-85.2569
390.5	-85.2572
390.6	-85.2574
390.7	-85.2577
390.8	-85.258
390.9	-85.2582
391	-85.2585
391.1	-85.2587
391.2	-85.259
391.3	-85.2592
391.4	-85.2595
391.5	-85.2598
391.6	-85.26
391.7	-85.2603
391.8	-85.2605
391.9	-85.2608
392	-85.2611
392.1	-85.2613
392.2	-85.2616
392.3	-85.2618
392.4	-85.2621
392.5	-85.2623
392.6	-85.2626
392.7	-85.2628
392.8	-85.2631
392.9	-85.2634
393	-85.2636
393.1	-85.2639
393.2	-85.2641
393.3	-85.2644
393.4	-85.2646
393.5	-85.2649
393.6	-85.2651
393.7	-85.2654
393.8	-85.2657
393.9	-85.2659
394	-85.2662
394.1	-85.2664
394.2	-85.2667
394.3	-85.2669
394.4	-85.2672
394.5	-85.2674
394.6	-85.2677
394.7	-85.2679
394.8	-85.2682
394.9	-85.2684
395	-85.2687
395.1	-85.2689
395.2	-85.2692
395.3	-85.2695
395.4	-85.2697
395.5	-85.27
395.6	-85.2702
395.7	-85.2705
395.8	-85.2707
395.9	-85.271
396	-85.2712
396.1	-85.2715
396.2	-85.2717
396.3	-85.272
396.4	-85.2722
396.5	-85.2725
396.6	-85.2727
396.7	-85.273
396.8	-85.2732
396.9	-85.2735
397	-85.2737
397.1	-85.274
397.2	-85.2742
397.3	-85.2745
397.4	-85.2747
397.5	-85.275
397.6	-85.2752
397.7	-85.2755
397.8	-85.2757
397.9	-85.276
398	-85.2762
398.1	-85.2765
398.2	-85.2767
398.3	-85.277
398.4	-85.2772
398.5	-85.2775
398.6	-85.2777
398.7	-85.278
398.8	-85.2782
398.9	-85.2785
399	-85.2787
399.1	-85.279
399.2	-85.2792
399.3	-85.2794
399.4	-85.2797
399.5	-85.2799
399.6	-85.2802
399.7	-85.2804
399.8	-85.2807
399.9	-85.2809
400	-85.2812
400.1	-85.2814
400.2	-85.2817
400.3	-85.2819
400.4	-85.2822
400.5	-85.2824
400.6	-85.2826
400.7	-85.2829
400.8	-85.2831
400.9	-85.2834
401	-85.2836
401.1	-85.2839
401.2	-85.2841
401.3	-85.2844
401.4	-85.2846
401.5	-85.2849
401.6	-85.2851
401.7	-85.2853
401.8	-85.2856
401.9	-85.2858
402	-85.2861
402.1	-85.2863
402.2	-85.2866
402.3	-85.2868
402.4	-85.287
402.5	-85.2873
402.6	-85.2875
402.7	-85.2878
402.8	-85.288
402.9	-85.2883
403	-85.2885
403.1	-85.2887
403.2	-85.289
403.3	-85.2892
403.4	-85.2895
403.5	-85.2897
403.6	-85.29
403.7	-85.2902
403.8	-85.2904
403.9	-85.2907
404	-85.2909
404.1	-85.2912
404.2	-85.2914
404.3	-85.2916
404.4	-85.2919
404.5	-85.2921
404.6	-85.2924
404.7	-85.2926
404.8	-85.2928
404.9	-85.2931
405	-85.2933
405.1	-85.2936
405.2	-85.2938
405.3	-85.294
405.4	-85.2943
405.5	-85.2945
405.6	-85.2948
405.7	-85.295
405.8	-85.2952
405.9	-85.2955
406	-85.2957
406.1	-85.296
406.2	-85.2962
406.3	-85.2964
406.4	-85.2967
406.5	-85.2969
406.6	-85.2972
406.7	-85.2974
406.8	-85.2976
406.9	-85.2979
407	-85.2981
407.1	-85.2983
407.2	-85.2986
407.3	-85.2988
407.4	-85.2991
407.5	-85.2993
407.6	-85.2995
407.7	-85.2998
407.8	-85.3
407.9	-85.3002
408	-85.3005
408.1	-85.3007
408.2	-85.3009
408.3	-85.3012
408.4	-85.3014
408.5	-85.3016
408.6	-85.3019
408.7	-85.3021
408.8	-85.3024
408.9	-85.3026
409	-85.3028
409.1	-85.3031
409.2	-85.3033
409.3	-85.3035
409.4	-85.3038
409.5	-85.304
409.6	-85.3042
409.7	-85.3045
409.8	-85.3047
409.9	-85.3049
410	-85.3052
410.1	-85.3054
410.2	-85.3056
410.3	-85.3059
410.4	-85.3061
410.5	-85.3063
410.6	-85.3066
410.7	-85.3068
410.8	-85.307
410.9	-85.3073
411	-85.3075
411.1	-85.3077
411.2	-85.308
411.3	-85.3082
411.4	-85.3084
411.5	-85.3087
411.6	-85.3089
411.7	-85.3091
411.8	-85.3094
411.9	-85.3096
412	-85.3098
412.1	-85.3101
412.2	-85.3103
412.3	-85.3105
412.4	-85.3107
412.5	-85.311
412.6	-85.3112
412.7	-85.3114
412.8	-85.3117
412.9	-85.3119
413	-85.3121
413.1	-85.3124
413.2	-85.3126
413.3	-85.3128
413.4	-85.313
413.5	-85.3133
413.6	-85.3135
413.7	-85.3137
413.8	-85.314
413.9	-85.3142
414	-85.3144
414.1	-85.3147
414.2	-85.3149
414.3	-85.3151
414.4	-85.3153
414.5	-85.3156
414.6	-85.3158
414.7	-85.316
414.8	-85.3163
414.9	-85.3165
415	-85.3167
415.1	-85.3169
415.2	-85.3172
415.3	-85.3174
415.4	-85.3176
415.5	-85.3178
415.6	-85.3181
415.7	-85.3183
415.8	-85.3185
415.9	-85.3188
416	-85.319
416.1	-85.3192
416.2	-85.3194
416.3	-85.3197
416.4	-85.3199
416.5	-85.3201
416.6	-85.3203
416.7	-85.3206
416.8	-85.3208
416.9	-85.321
417	-85.3212
417.1	-85.3215
417.2	-85.3217
417.3	-85.3219
417.4	-85.3221
417.5	-85.3224
417.6	-85.3226
417.7	-85.3228
417.8	-85.323
417.9	-85.3233
418	-85.3235
418.1	-85.3237
418.2	-85.3239
418.3	-85.3242
418.4	-85.3244
418.5	-85.3246
418.6	-85.3248
418.7	-85.3251
418.8	-85.3253
418.9	-85.3255
419	-85.3257
419.1	-85.3259
419.2	-85.3262
419.3	-85.3264
419.4	-85.3266
419.5	-85.3268
419.6	-85.3271
419.7	-85.3273
419.8	-85.3275
419.9	-85.3277
420	-85.3279
420.1	-85.3282
420.2	-85.3284
420.3	-85.3286
420.4	-85.3288
420.5	-85.3291
420.6	-85.3293
420.7	-85.3295
420.8	-85.3297
420.9	-85.3299
421	-85.3302
421.1	-85.3304
421.2	-85.3306
421.3	-85.3308
421.4	-85.331
421.5	-85.3313
421.6	-85.3315
421.7	-85.3317
421.8	-85.3319
421.9	-85.3321
422	-85.3324
422.1	-85.3326
422.2	-85.3328
422.3	-85.333
422.4	-85.3332
422.5	-85.3335
422.6	-85.3337
422.7	-85.3339
422.8	-85.3341
422.9	-85.3343
423	-85.3346
423.1	-85.3348
423.2	-85.335
423.3	-85.3352
423.4	-85.3354
423.5	-85.3356
423.6	-85.3359
423.7	-85.3361
423.8	-85.3363
423.9	-85.3365
424	-85.3367
424.1	-85.337
424.2	-85.3372
424.3	-85.3374
424.4	-85.3376
424.5	-85.3378
424.6	-85.338
424.7	-85.3383
424.8	-85.3385
424.9	-85.3387
425	-85.3389
425.1	-85.3391
425.2	-85.3393
425.3	-85.3396
425.4	-85.3398
425.5	-85.34
425.6	-85.3402
425.7	-85.3404
425.8	-85.3406
425.9	-85.3408
426	-85.3411
426.1	-85.3413
426.2	-85.3415
426.3	-85.3417
426.4	-85.3419
426.5	-85.3421
426.6	-85.3424
426.7	-85.3426
426.8	-85.3428
426.9	-85.343
427	-85.3432
427.1	-85.3434
427.2	-85.3436
427.3	-85.3439
427.4	-85.3441
427.5	-85.3443
427.6	-85.3445
427.7	-85.3447
427.8	-85.3449
427.9	-85.3451
428	-85.3453
428.1	-85.3456
428.2	-85.3458
428.3	-85.346
428.4	-85.3462
428.5	-85.3464
428.6	-85.3466
428.7	-85.3468
428.8	-85.347
428.9	-85.3473
429	-85.3475
429.1	-85.3477
429.2	-85.3479
429.3	-85.3481
429.4	-85.3483
429.5	-85.3485
429.6	-85.3487
429.7	-85.349
429.8	-85.3492
429.9	-85.3494
430	-85.3496
430.1	-85.3498
430.2	-85.35
430.3	-85.3502
430.4	-85.3504
430.5	-85.3506
430.6	-85.3508
430.7	-85.3511
430.8	-85.3513
430.9	-85.3515
431	-85.3517
431.1	-85.3519
431.2	-85.3521
431.3	-85.3523
431.4	-85.3525
431.5	-85.3527
431.6	-85.3529
431.7	-85.3532
431.8	-85.3534
431.9	-85.3536
432	-85.3538
432.1	-85.354
432.2	-85.3542
432.3	-85.3544
432.4	-85.3546
432.5	-85.3548
432.6	-85.355
432.7	-85.3552
432.8	-85.3554
432.9	-85.3557
433	-85.3559
433.1	-85.3561
433.2	-85.3563
433.3	-85.3565
433.4	-85.3567
433.5	-85.3569
433.6	-85.3571
433.7	-85.3573
433.8	-85.3575
433.9	-85.3577
434	-85.3579
434.1	-85.3581
434.2	-85.3583
434.3	-85.3586
434.4	-85.3588
434.5	-85.359
434.6	-85.3592
434.7	-85.3594
434.8	-85.3596
434.9	-85.3598
435	-85.36
435.1	-85.3602
435.2	-85.3604
435.3	-85.3606
435.4	-85.3608
435.5	-85.361
435.6	-85.3612
435.7	-85.3614
435.8	-85.3616
435.9	-85.3618
436	-85.362
436.1	-85.3622
436.2	-85.3625
436.3	-85.3627
436.4	-85.3629
436.5	-85.3631
436.6	-85.3633
436.7	-85.3635
436.8	-85.3637
436.9	-85.3639
437	-85.3641
437.1	-85.3643
437.2	-85.3645
437.3	-85.3647
437.4	-85.3649
437.5	-85.3651
437.6	-85.3653
437.7	-85.3655
437.8	-85.3657
437.9	-85.3659
438	-85.3661
438.1	-85.3663
438.2	-85.3665
438.3	-85.3667
438.4	-85.3669
438.5	-85.3671
438.6	-85.3673
438.7	-85.3675
438.8	-85.3677
438.9	-85.3679
439	-85.3681
439.1	-85.3683
439.2	-85.3685
439.3	-85.3687
439.4	-85.3689
439.5	-85.3691
439.6	-85.3693
439.7	-85.3695
439.8	-85.3697
439.9	-85.3699
440	-85.3701
440.1	-85.3703
440.2	-85.3705
440.3	-85.3707
440.4	-85.3709
440.5	-85.3711
440.6	-85.3713
440.7	-85.3715
440.8	-85.3717
440.9	-85.3719
441	-85.3721
441.1	-85.3723
441.2	-85.3725
441.3	-85.3727
441.4	-85.3729
441.5	-85.3731
441.6	-85.3733
441.7	-85.3735
441.8	-85.3737
441.9	-85.3739
442	-85.3741
442.1	-85.3743
442.2	-85.3745
442.3	-85.3747
442.4	-85.3749
442.5	-85.3751
442.6	-85.3753
442.7	-85.3755
442.8	-85.3757
442.9	-85.3759
443	-85.3761
443.1	-85.3763
443.2	-85.3765
443.3	-85.3767
443.4	-85.3769
443.5	-85.3771
443.6	-85.3773
443.7	-85.3775
443.8	-85.3777
443.9	-85.3779
444	-85.3781
444.1	-85.3783
444.2	-85.3785
444.3	-85.3787
444.4	-85.3789
444.5	-85.3791
444.6	-85.3793
444.7	-85.3794
444.8	-85.3796
444.9	-85.3798
445	-85.38
445.1	-85.3802
445.2	-85.3804
445.3	-85.3806
445.4	-85.3808
445.5	-85.381
445.6	-85.3812
445.7	-85.3814
445.8	-85.3816
445.9	-85.3818
446	-85.382
446.1	-85.3822
446.2	-85.3824
446.3	-85.3826
446.4	-85.3828
446.5	-85.383
446.6	-85.3831
446.7	-85.3833
446.8	-85.3835
446.9	-85.3837
447	-85.3839
447.1	-85.3841
447.2	-85.3843
447.3	-85.3845
447.4	-85.3847
447.5	-85.3849
447.6	-85.3851
447.7	-85.3853
447.8	-85.3855
447.9	-85.3857
448	-85.3859
448.1	-85.386
448.2	-85.3862
448.3	-85.3864
448.4	-85.3866
448.5	-85.3868
448.6	-85.387
448.7	-85.3872
448.8	-85.3874
448.9	-85.3876
449	-85.3878
449.1	-85.388
449.2	-85.3882
449.3	-85.3883
449.4	-85.3885
449.5	-85.3887
449.6	-85.3889
449.7	-85.3891
449.8	-85.3893
449.9	-85.3895
450	-85.3897
450.1	-85.3899
450.2	-85.3901
450.3	-85.3903
450.4	-85.3904
450.5	-85.3906
450.6	-85.3908
450.7	-85.391
450.8	-85.3912
450.9	-85.3914
451	-85.3916
451.1	-85.3918
451.2	-85.392
451.3	-85.3921
451.4	-85.3923
451.5	-85.3925
451.6	-85.3927
451.7	-85.3929
451.8	-85.3931
451.9	-85.3933
452	-85.3935
452.1	-85.3937
452.2	-85.3938
452.3	-85.394
452.4	-85.3942
452.5	-85.3944
452.6	-85.3946
452.7	-85.3948
452.8	-85.395
452.9	-85.3952
453	-85.3954
453.1	-85.3955
453.2	-85.3957
453.3	-85.3959
453.4	-85.3961
453.5	-85.3963
453.6	-85.3965
453.7	-85.3967
453.8	-85.3969
453.9	-85.397
454	-85.3972
454.1	-85.3974
454.2	-85.3976
454.3	-85.3978
454.4	-85.398
454.5	-85.3982
454.6	-85.3983
454.7	-85.3985
454.8	-85.3987
454.9	-85.3989
455	-85.3991
455.1	-85.3993
455.2	-85.3995
455.3	-85.3996
455.4	-85.3998
455.5	-85.4
455.6	-85.4002
455.7	-85.4004
455.8	-85.4006
455.9	-85.4008
456	-85.4009
456.1	-85.4011
456.2	-85.4013
456.3	-85.4015
456.4	-85.4017
456.5	-85.4019
456.6	-85.402
456.7	-85.4022
456.8	-85.4024
456.9	-85.4026
457	-85.4028
457.1	-85.403
457.2	-85.4032
457.3	-85.4033
457.4	-85.4035
457.5	-85.4037
457.6	-85.4039
457.7	-85.4041
457.8	-85.4043
457.9	-85.4044
458	-85.4046
458.1	-85.4048
458.2	-85.405
458.3	-85.4052
458.4	-85.4054
458.5	-85.4055
458.6	-85.4057
458.7	-85.4059
458.8	-85.4061
458.9	-85.4063
459	-85.4064
459.1	-85.4066
459.2	-85.4068
459.3	-85.407
459.4	-85.4072
459.5	-85.4074
459.6	-85.4075
459.7	-85.4077
459.8	-85.4079
459.9	-85.4081
460	-85.4083
460.1	-85.4084
460.2	-85.4086
460.3	-85.4088
460.4	-85.409
460.5	-85.4092
460.6	-85.4093
460.7	-85.4095
460.8	-85.4097
460.9	-85.4099
461	-85.4101
461.1	-85.4102
461.2	-85.4104
461.3	-85.4106
461.4	-85.4108
461.5	-85.411
461.6	-85.4111
461.7	-85.4113
461.8	-85.4115
461.9	-85.4117
462	-85.4119
462.1	-85.412
462.2	-85.4122
462.3	-85.4124
462.4	-85.4126
462.5	-85.4128
462.6	-85.4129
462.7	-85.4131
462.8	-85.4133
462.9	-85.4135
463	-85.4137
463.1	-85.4138
463.2	-85.414
463.3	-85.4142
463.4	-85.4144
463.5	-85.4145
463.6	-85.4147
463.7	-85.4149
463.8	-85.4151
463.9	-85.4153
464	-85.4154
464.1	-85.4156
464.2	-85.4158
464.3	-85.416
464.4	-85.4161
464.5	-85.4163
464.6	-85.4165
464.7	-85.4167
464.8	-85.4169
464.9	-85.417
465	-85.4172
465.1	-85.4174
465.2	-85.4176
465.3	-85.4177
465.4	-85.4179
465.5	-85.4181
465.6	-85.4183
465.7	-85.4184
465.8	-85.4186
465.9	-85.4188
466	-85.419
466.1	-85.4191
466.2	-85.4193
466.3	-85.4195
466.4	-85.4197
466.5	-85.4198
466.6	-85.42
466.7	-85.4202
466.8	-85.4204
466.9	-85.4205
467	-85.4207
467.1	-85.4209
467.2	-85.4211
467.3	-85.4212
467.4	-85.4214
467.5	-85.4216
467.6	-85.4218
467.7	-85.4219
467.8	-85.4221
467.9	-85.4223
468	-85.4225
468.1	-85.4226
468.2	-85.4228
468.3	-85.423
468.4	-85.4232
468.5	-85.4233
468.6	-85.4235
468.7	-85.4237
468.8	-85.4239
468.9	-85.424
469	-85.4242
469.1	-85.4244
469.2	-85.4246
469.3	-85.4247
469.4	-85.4249
469.5	-85.4251
469.6	-85.4252
469.7	-85.4254
469.8	-85.4256
469.9	-85.4258
470	-85.4259
470.1	-85.4261
470.2	-85.4263
470.3	-85.4265
470.4	-85.4266
470.5	-85.4268
470.6	-85.427
470.7	-85.4271
470.8	-85.4273
470.9	-85.4275
471	-85.4277
471.1	-85.4278
471.2	-85.428
471.3	-85.4282
471.4	-85.4283
471.5	-85.4285
471.6	-85.4287
471.7	-85.4289
471.8	-85.429
471.9	-85.4292
472	-85.4294
472.1	-85.4295
472.2	-85.4297
472.3	-85.4299
472.4	-85.43
472.5	-85.4302
472.6	-85.4304
472.7	-85.4306
472.8	-85.4307
472.9	-85.4309
473	-85.4311
473.1	-85.4312
473.2	-85.4314
473.3	-85.4316
473.4	-85.4317
473.5	-85.4319
473.6	-85.4321
473.7	-85.4323
473.8	-85.4324
473.9	-85.4326
474	-85.4328
474.1	-85.4329
474.2	-85.4331
474.3	-85.4333
474.4	-85.4334
474.5	-85.4336
474.6	-85.4338
474.7	-85.4339
474.8	-85.4341
474.9	-85.4343
475	-85.4344
475.1	-85.4346
475.2	-85.4348
475.3	-85.435
475.4	-85.4351
475.5	-85.4353
475.6	-85.4355
475.7	-85.4356
475.8	-85.4358
475.9	-85.436
476	-85.4361
476.1	-85.4363
476.2	-85.4365
476.3	-85.4366
476.4	-85.4368
476.5	-85.437
476.6	-85.4371
476.7	-85.4373
476.8	-85.4375
476.9	-85.4376
477	-85.4378
477.1	-85.438
477.2	-85.4381
477.3	-85.4383
477.4	-85.4385
477.5	-85.4386
477.6	-85.4388
477.7	-85.439
477.8	-85.4391
477.9	-85.4393
478	-85.4395
478.1	-85.4396
478.2	-85.4398
478.3	-85.44
478.4	-85.4401
478.5	-85.4403
478.6	-85.4404
478.7	-85.4406
478.8	-85.4408
478.9	-85.4409
479	-85.4411
479.1	-85.4413
479.2	-85.4414
479.3	-85.4416
479.4	-85.4418
479.5	-85.4419
479.6	-85.4421
479.7	-85.4423
479.8	-85.4424
479.9	-85.4426
480	-85.4428
480.1	-85.4429
480.2	-85.4431
480.3	-85.4432
480.4	-85.4434
480.5	-85.4436
480.6	-85.4437
480.7	-85.4439
480.8	-85.4441
480.9	-85.4442
481	-85.4444
481.1	-85.4446
481.2	-85.4447
481.3	-85.4449
481.4	-85.445
481.5	-85.4452
481.6	-85.4454
481.7	-85.4455
481.8	-85.4457
481.9	-85.4459
482	-85.446
482.1	-85.4462
482.2	-85.4463
482.3	-85.4465
482.4	-85.4467
482.5	-85.4468
482.6	-85.447
482.7	-85.4472
482.8	-85.4473
482.9	-85.4475
483	-85.4476
483.1	-85.4478
483.2	-85.448
483.3	-85.4481
483.4	-85.4483
483.5	-85.4484
483.6	-85.4486
483.7	-85.4488
483.8	-85.4489
483.9	-85.4491
484	-85.4492
484.1	-85.4494
484.2	-85.4496
484.3	-85.4497
484.4	-85.4499
484.5	-85.4501
484.6	-85.4502
484.7	-85.4504
484.8	-85.4505
484.9	-85.4507
485	-85.4509
485.1	-85.451
485.2	-85.4512
485.3	-85.4513
485.4	-85.4515
485.5	-85.4517
485.6	-85.4518
485.7	-85.452
485.8	-85.4521
485.9	-85.4523
486	-85.4524
486.1	-85.4526
486.2	-85.4528
486.3	-85.4529
486.4	-85.4531
486.5	-85.4532
486.6	-85.4534
486.7	-85.4536
486.8	-85.4537
486.9	-85.4539
487	-85.454
487.1	-85.4542
487.2	-85.4544
487.3	-85.4545
487.4	-85.4547
487.5	-85.4548
487.6	-85.455
487.7	-85.4551
487.8	-85.4553
487.9	-85.4555
488	-85.4556
488.1	-85.4558
488.2	-85.4559
488.3	-85.4561
488.4	-85.4562
488.5	-85.4564
488.6	-85.4566
488.7	-85.4567
488.8	-85.4569
488.9	-85.457
489	-85.4572
489.1	-85.4573
489.2	-85.4575
489.3	-85.4577
489.4	-85.4578
489.5	-85.458
489.6	-85.4581
489.7	-85.4583
489.8	-85.4584
489.9	-85.4586
490	-85.4588
490.1	-85.4589
490.2	-85.4591
490.3	-85.4592
490.4	-85.4594
490.5	-85.4595
490.6	-85.4597
490.7	-85.4598
490.8	-85.46
490.9	-85.4602
491	-85.4603
491.1	-85.4605
491.2	-85.4606
491.3	-85.4608
491.4	-85.4609
491.5	-85.4611
491.6	-85.4612
491.7	-85.4614
491.8	-85.4616
491.9	-85.4617
492	-85.4619
492.1	-85.462
492.2	-85.4622
492.3	-85.4623
492.4	-85.4625
492.5	-85.4626
492.6	-85.4628
492.7	-85.4629
492.8	-85.4631
492.9	-85.4633
493	-85.4634
493.1	-85.4636
493.2	-85.4637
493.3	-85.4639
493.4	-85.464
493.5	-85.4642
493.6	-85.4643
493.7	-85.4645
493.8	-85.4646
493.9	-85.4648
494	-85.4649
494.1	-85.4651
494.2	-85.4653
494.3	-85.4654
494.4	-85.4656
494.5	-85.4657
494.6	-85.4659
494.7	-85.466
494.8	-85.4662
494.9	-85.4663
495	-85.4665
495.1	-85.4666
495.2	-85.4668
495.3	-85.4669
495.4	-85.4671
495.5	-85.4672
495.6	-85.4674
495.7	-85.4675
495.8	-85.4677
495.9	-85.4678
496	-85.468
496.1	-85.4681
496.2	-85.4683
496.3	-85.4684
496.4	-85.4686
496.5	-85.4688
496.6	-85.4689
496.7	-85.4691
496.8	-85.4692
496.9	-85.4694
497	-85.4695
497.1	-85.4697
497.2	-85.4698
497.3	-85.47
497.4	-85.4701
497.5	-85.4703
497.6	-85.4704
497.7	-85.4706
497.8	-85.4707
497.9	-85.4709
498	-85.471
498.1	-85.4712
498.2	-85.4713
498.3	-85.4715
498.4	-85.4716
498.5	-85.4718
498.6	-85.4719
498.7	-85.4721
498.8	-85.4722
498.9	-85.4724
499	-85.4725
499.1	-85.4727
499.2	-85.4728
499.3	-85.473
499.4	-85.4731
499.5	-85.4733
499.6	-85.4734
499.7	-85.4736
499.8	-85.4737
499.9	-85.4739
500	-85.474
500.1	-85.4741
500.2	-85.4743
500.3	-85.4744
500.4	-85.4746
500.5	-85.4747
500.6	-85.4749
500.7	-85.475
500.8	-85.4752
500.9	-85.4753
501	-85.4755
501.1	-85.4756
501.2	-85.4758
501.3	-85.4759
501.4	-85.4761
501.5	-85.4762
501.6	-85.4764
501.7	-85.4765
501.8	-85.4767
501.9	-85.4768
502	-85.477
502.1	-85.4771
502.2	-85.4773
502.3	-85.4774
502.4	-85.4775
502.5	-85.4777
502.6	-85.4778
502.7	-85.478
502.8	-85.4781
502.9	-85.4783
503	-85.4784
503.1	-85.4786
503.2	-85.4787
503.3	-85.4789
503.4	-85.479
503.5	-85.4792
503.6	-85.4793
503.7	-85.4795
503.8	-85.4796
503.9	-85.4797
504	-85.4799
504.1	-85.48
504.2	-85.4802
504.3	-85.4803
504.4	-85.4805
504.5	-85.4806
504.6	-85.4808
504.7	-85.4809
504.8	-85.4811
504.9	-85.4812
505	-85.4813
505.1	-85.4815
505.2	-85.4816
505.3	-85.4818
505.4	-85.4819
505.5	-85.4821
505.6	-85.4822
505.7	-85.4824
505.8	-85.4825
505.9	-85.4827
506	-85.4828
506.1	-85.4829
506.2	-85.4831
506.3	-85.4832
506.4	-85.4834
506.5	-85.4835
506.6	-85.4837
506.7	-85.4838
506.8	-85.4839
506.9	-85.4841
507	-85.4842
507.1	-85.4844
507.2	-85.4845
507.3	-85.4847
507.4	-85.4848
507.5	-85.485
507.6	-85.4851
507.7	-85.4852
507.8	-85.4854
507.9	-85.4855
508	-85.4857
508.1	-85.4858
508.2	-85.486
508.3	-85.4861
508.4	-85.4862
508.5	-85.4864
508.6	-85.4865
508.7	-85.4867
508.8	-85.4868
508.9	-85.487
509	-85.4871
509.1	-85.4872
509.2	-85.4874
509.3	-85.4875
509.4	-85.4877
509.5	-85.4878
509.6	-85.4879
509.7	-85.4881
509.8	-85.4882
509.9	-85.4884
510	-85.4885
510.1	-85.4887
510.2	-85.4888
510.3	-85.4889
510.4	-85.4891
510.5	-85.4892
510.6	-85.4894
510.7	-85.4895
510.8	-85.4896
510.9	-85.4898
511	-85.4899
511.1	-85.4901
511.2	-85.4902
511.3	-85.4904
511.4	-85.4905
511.5	-85.4906
511.6	-85.4908
511.7	-85.4909
511.8	-85.4911
511.9	-85.4912
512	-85.4913
512.1	-85.4915
512.2	-85.4916
512.3	-85.4918
512.4	-85.4919
512.5	-85.492
512.6	-85.4922
512.7	-85.4923
512.8	-85.4925
512.9	-85.4926
513	-85.4927
513.1	-85.4929
513.2	-85.493
513.3	-85.4932
513.4	-85.4933
513.5	-85.4934
513.6	-85.4936
513.7	-85.4937
513.8	-85.4939
513.9	-85.494
514	-85.4941
514.1	-85.4943
514.2	-85.4944
514.3	-85.4945
514.4	-85.4947
514.5	-85.4948
514.6	-85.495
514.7	-85.4951
514.8	-85.4952
514.9	-85.4954
515	-85.4955
515.1	-85.4957
515.2	-85.4958
515.3	-85.4959
515.4	-85.4961
515.5	-85.4962
515.6	-85.4963
515.7	-85.4965
515.8	-85.4966
515.9	-85.4968
516	-85.4969
516.1	-85.497
516.2	-85.4972
516.3	-85.4973
516.4	-85.4974
516.5	-85.4976
516.6	-85.4977
516.7	-85.4979
516.8	-85.498
516.9	-85.4981
517	-85.4983
517.1	-85.4984
517.2	-85.4985
517.3	-85.4987
517.4	-85.4988
517.5	-85.499
517.6	-85.4991
517.7	-85.4992
517.8	-85.4994
517.9	-85.4995
518	-85.4996
518.1	-85.4998
518.2	-85.4999
518.3	-85.5
518.4	-85.5002
518.5	-85.5003
518.6	-85.5005
518.7	-85.5006
518.8	-85.5007
518.9	-85.5009
519	-85.501
519.1	-85.5011
519.2	-85.5013
519.3	-85.5014
519.4	-85.5015
519.5	-85.5017
519.6	-85.5018
519.7	-85.5019
519.8	-85.5021
519.9	-85.5022
520	-85.5023
520.1	-85.5025
520.2	-85.5026
520.3	-85.5028
520.4	-85.5029
520.5	-85.503
520.6	-85.5032
520.7	-85.5033
520.8	-85.5034
520.9	-85.5036
521	-85.5037
521.1	-85.5038
521.2	-85.504
521.3	-85.5041
521.4	-85.5042
521.5	-85.5044
521.6	-85.5045
521.7	-85.5046
521.8	-85.5048
521.9	-85.5049
522	-85.505
522.1	-85.5052
522.2	-85.5053
522.3	-85.5054
522.4	-85.5056
522.5	-85.5057
522.6	-85.5058
522.7	-85.506
522.8	-85.5061
522.9	-85.5062
523	-85.5064
523.1	-85.5065
523.2	-85.5066
523.3	-85.5068
523.4	-85.5069
523.5	-85.507
523.6	-85.5072
523.7	-85.5073
523.8	-85.5074
523.9	-85.5076
524	-85.5077
524.1	-85.5078
524.2	-85.508
524.3	-85.5081
524.4	-85.5082
524.5	-85.5084
524.6	-85.5085
524.7	-85.5086
524.8	-85.5088
524.9	-85.5089
525	-85.509
525.1	-85.5091
525.2	-85.5093
525.3	-85.5094
525.4	-85.5095
525.5	-85.5097
525.6	-85.5098
525.7	-85.5099
525.8	-85.5101
525.9	-85.5102
526	-85.5103
526.1	-85.5105
526.2	-85.5106
526.3	-85.5107
526.4	-85.5109
526.5	-85.511
526.6	-85.5111
526.7	-85.5112
526.8	-85.5114
526.9	-85.5115
527	-85.5116
527.1	-85.5118
527.2	-85.5119
527.3	-85.512
527.4	-85.5122
527.5	-85.5123
527.6	-85.5124
527.7	-85.5126
527.8	-85.5127
527.9	-85.5128
528	-85.5129
528.1	-85.5131
528.2	-85.5132
528.3	-85.5133
528.4	-85.5135
528.5	-85.5136
528.6	-85.5137
528.7	-85.5139
528.8	-85.514
528.9	-85.5141
529	-85.5142
529.1	-85.5144
529.2	-85.5145
529.3	-85.5146
529.4	-85.5148
529.5	-85.5149
529.6	-85.515
529.7	-85.5151
529.8	-85.5153
529.9	-85.5154
530	-85.5155
530.1	-85.5157
530.2	-85.5158
530.3	-85.5159
530.4	-85.516
530.5	-85.5162
530.6	-85.5163
530.7	-85.5164
530.8	-85.5166
530.9	-85.5167
531	-85.5168
531.1	-85.5169
531.2	-85.5171
531.3	-85.5172
531.4	-85.5173
531.5	-85.5175
531.6	-85.5176
531.7	-85.5177
531.8	-85.5178
531.9	-85.518
532	-85.5181
532.1	-85.5182
532.2	-85.5183
532.3	-85.5185
532.4	-85.5186
532.5	-85.5187
532.6	-85.5189
532.7	-85.519
532.8	-85.5191
532.9	-85.5192
533	-85.5194
533.1	-85.5195
533.2	-85.5196
533.3	-85.5197
533.4	-85.5199
533.5	-85.52
533.6	-85.5201
533.7	-85.5202
533.8	-85.5204
533.9	-85.5205
534	-85.5206
534.1	-85.5208
534.2	-85.5209
534.3	-85.521
534.4	-85.5211
534.5	-85.5213
534.6	-85.5214
534.7	-85.5215
534.8	-85.5216
534.9	-85.5218
535	-85.5219
535.1	-85.522
535.2	-85.5221
535.3	-85.5223
535.4	-85.5224
535.5	-85.5225
535.6	-85.5226
535.7	-85.5228
535.8	-85.5229
535.9	-85.523
536	-85.5231
536.1	-85.5233
536.2	-85.5234
536.3	-85.5235
536.4	-85.5236
536.5	-85.5238
536.6	-85.5239
536.7	-85.524
536.8	-85.5241
536.9	-85.5243
537	-85.5244
537.1	-85.5245
537.2	-85.5246
537.3	-85.5248
537.4	-85.5249
537.5	-85.525
537.6	-85.5251
537.7	-85.5253
537.8	-85.5254
537.9	-85.5255
538	-85.5256
538.1	-85.5258
538.2	-85.5259
538.3	-85.526
538.4	-85.5261
538.5	-85.5262
538.6	-85.5264
538.7	-85.5265
538.8	-85.5266
538.9	-85.5267
539	-85.5269
539.1	-85.527
539.2	-85.5271
539.3	-85.5272
539.4	-85.5274
539.5	-85.5275
539.6	-85.5276
539.7	-85.5277
539.8	-85.5278
539.9	-85.528
540	-85.5281
540.1	-85.5282
540.2	-85.5283
540.3	-85.5285
540.4	-85.5286
540.5	-85.5287
540.6	-85.5288
540.7	-85.529
540.8	-85.5291
540.9	-85.5292
541	-85.5293
541.1	-85.5294
541.2	-85.5296
541.3	-85.5297
541.4	-85.5298
541.5	-85.5299
541.6	-85.5301
541.7	-85.5302
541.8	-85.5303
541.9	-85.5304
542	-85.5305
542.1	-85.5307
542.2	-85.5308
542.3	-85.5309
542.4	-85.531
542.5	-85.5311
542.6	-85.5313
542.7	-85.5314
542.8	-85.5315
542.9	-85.5316
543	-85.5317
543.1	-85.5319
543.2	-85.532
543.3	-85.5321
543.4	-85.5322
543.5	-85.5324
543.6	-85.5325
543.7	-85.5326
543.8	-85.5327
543.9	-85.5328
544	-85.533
544.1	-85.5331
544.2	-85.5332
544.3	-85.5333
544.4	-85.5334
544.5	-85.5336
544.6	-85.5337
544.7	-85.5338
544.8	-85.5339
544.9	-85.534
545	-85.5342
545.1	-85.5343
545.2	-85.5344
545.3	-85.5345
545.4	-85.5346
545.5	-85.5348
545.6	-85.5349
545.7	-85.535
545.8	-85.5351
545.9	-85.5352
546	-85.5354
546.1	-85.5355
546.2	-85.5356
546.3	-85.5357
546.4	-85.5358
546.5	-85.5359
546.6	-85.5361
546.7	-85.5362
546.8	-85.5363
546.9	-85.5364
547	-85.5365
547.1	-85.5367
547.2	-85.5368
547.3	-85.5369
547.4	-85.537
547.5	-85.5371
547.6	-85.5373
547.7	-85.5374
547.8	-85.5375
547.9	-85.5376
548	-85.5377
548.1	-85.5378
548.2	-85.538
548.3	-85.5381
548.4	-85.5382
548.5	-85.5383
548.6	-85.5384
548.7	-85.5386
548.8	-85.5387
548.9	-85.5388
549	-85.5389
549.1	-85.539
549.2	-85.5391
549.3	-85.5393
549.4	-85.5394
549.5	-85.5395
549.6	-85.5396
549.7	-85.5397
549.8	-85.5398
549.9	-85.54
550	-85.5401
550.1	-85.5402
550.2	-85.5403
550.3	-85.5404
550.4	-85.5405
550.5	-85.5407
550.6	-85.5408
550.7	-85.5409
550.8	-85.541
550.9	-85.5411
551	-85.5412
551.1	-85.5414
551.2	-85.5415
551.3	-85.5416
551.4	-85.5417
551.5	-85.5418
551.6	-85.5419
551.7	-85.5421
551.8	-85.5422
551.9	-85.5423
552	-85.5424
552.1	-85.5425
552.2	-85.5426
552.3	-85.5428
552.4	-85.5429
552.5	-85.543
552.6	-85.5431
552.7	-85.5432
552.8	-85.5433
552.9	-85.5434
553	-85.5436
553.1	-85.5437
553.2	-85.5438
553.3	-85.5439
553.4	-85.544
553.5	-85.5441
553.6	-85.5443
553.7	-85.5444
553.8	-85.5445
553.9	-85.5446
554	-85.5447
554.1	-85.5448
554.2	-85.5449
554.3	-85.5451
554.4	-85.5452
554.5	-85.5453
554.6	-85.5454
554.7	-85.5455
554.8	-85.5456
554.9	-85.5457
555	-85.5459
555.1	-85.546
555.2	-85.5461
555.3	-85.5462
555.4	-85.5463
555.5	-85.5464
555.6	-85.5465
555.7	-85.5467
555.8	-85.5468
555.9	-85.5469
556	-85.547
556.1	-85.5471
556.2	-85.5472
556.3	-85.5473
556.4	-85.5475
556.5	-85.5476
556.6	-85.5477
556.7	-85.5478
556.8	-85.5479
556.9	-85.548
557	-85.5481
557.1	-85.5482
557.2	-85.5484
557.3	-85.5485
557.4	-85.5486
557.5	-85.5487
557.6	-85.5488
557.7	-85.5489
557.8	-85.549
557.9	-85.5491
558	-85.5493
558.1	-85.5494
558.2	-85.5495
558.3	-85.5496
558.4	-85.5497
558.5	-85.5498
558.6	-85.5499
558.7	-85.55
558.8	-85.5502
558.9	-85.5503
559	-85.5504
559.1	-85.5505
559.2	-85.5506
559.3	-85.5507
559.4	-85.5508
559.5	-85.5509
559.6	-85.5511
559.7	-85.5512
559.8	-85.5513
559.9	-85.5514
560	-85.5515
560.1	-85.5516
560.2	-85.5517
560.3	-85.5518
560.4	-85.552
560.5	-85.5521
560.6	-85.5522
560.7	-85.5523
560.8	-85.5524
560.9	-85.5525
561	-85.5526
561.1	-85.5527
561.2	-85.5528
561.3	-85.553
561.4	-85.5531
561.5	-85.5532
561.6	-85.5533
561.7	-85.5534
561.8	-85.5535
561.9	-85.5536
562	-85.5537
562.1	-85.5538
562.2	-85.5539
562.3	-85.5541
562.4	-85.5542
562.5	-85.5543
562.6	-85.5544
562.7	-85.5545
562.8	-85.5546
562.9	-85.5547
563	-85.5548
563.1	-85.5549
563.2	-85.555
563.3	-85.5552
563.4	-85.5553
563.5	-85.5554
563.6	-85.5555
563.7	-85.5556
563.8	-85.5557
563.9	-85.5558
564	-85.5559
564.1	-85.556
564.2	-85.5561
564.3	-85.5563
564.4	-85.5564
564.5	-85.5565
564.6	-85.5566
564.7	-85.5567
564.8	-85.5568
564.9	-85.5569
565	-85.557
565.1	-85.5571
565.2	-85.5572
565.3	-85.5573
565.4	-85.5575
565.5	-85.5576
565.6	-85.5577
565.7	-85.5578
565.8	-85.5579
565.9	-85.558
566	-85.5581
566.1	-85.5582
566.2	-85.5583
566.3	-85.5584
566.4	-85.5585
566.5	-85.5586
566.6	-85.5588
566.7	-85.5589
566.8	-85.559
566.9	-85.5591
567	-85.5592
567.1	-85.5593
567.2	-85.5594
567.3	-85.5595
567.4	-85.5596
567.5	-85.5597
567.6	-85.5598
567.7	-85.5599
567.8	-85.5601
567.9	-85.5602
568	-85.5603
568.1	-85.5604
568.2	-85.5605
568.3	-85.5606
568.4	-85.5607
568.5	-85.5608
568.6	-85.5609
568.7	-85.561
568.8	-85.5611
568.9	-85.5612
569	-85.5613
569.1	-85.5614
569.2	-85.5616
569.3	-85.5617
569.4	-85.5618
569.5	-85.5619
569.6	-85.562
569.7	-85.5621
569.8	-85.5622
569.9	-85.5623
570	-85.5624
570.1	-85.5625
570.2	-85.5626
570.3	-85.5627
570.4	-85.5628
570.5	-85.5629
570.6	-85.563
570.7	-85.5632
570.8	-85.5633
570.9	-85.5634
571	-85.5635
571.1	-85.5636
571.2	-85.5637
571.3	-85.5638
571.4	-85.5639
571.5	-85.564
571.6	-85.5641
571.7	-85.5642
571.8	-85.5643
571.9	-85.5644
572	-85.5645
572.1	-85.5646
572.2	-85.5647
572.3	-85.5648
572.4	-85.5649
572.5	-85.5651
572.6	-85.5652
572.7	-85.5653
572.8	-85.5654
572.9	-85.5655
573	-85.5656
573.1	-85.5657
573.2	-85.5658
573.3	-85.5659
573.4	-85.566
573.5	-85.5661
573.6	-85.5662
573.7	-85.5663
573.8	-85.5664
573.9	-85.5665
574	-85.5666
574.1	-85.5667
574.2	-85.5668
574.3	-85.5669
574.4	-85.567
574.5	-85.5671
574.6	-85.5673
574.7	-85.5674
574.8	-85.5675
574.9	-85.5676
575	-85.5677
575.1	-85.5678
575.2	-85.5679
575.3	-85.568
575.4	-85.5681
575.5	-85.5682
575.6	-85.5683
575.7	-85.5684
575.8	-85.5685
575.9	-85.5686
576	-85.5687
576.1	-85.5688
576.2	-85.5689
576.3	-85.569
576.4	-85.5691
576.5	-85.5692
576.6	-85.5693
576.7	-85.5694
576.8	-85.5695
576.9	-85.5696
577	-85.5697
577.1	-85.5698
577.2	-85.5699
577.3	-85.57
577.4	-85.5702
577.5	-85.5703
577.6	-85.5704
577.7	-85.5705
577.8	-85.5706
577.9	-85.5707
578	-85.5708
578.1	-85.5709
578.2	-85.571
578.3	-85.5711
578.4	-85.5712
578.5	-85.5713
578.6	-85.5714
578.7	-85.5715
578.8	-85.5716
578.9	-85.5717
579	-85.5718
579.1	-85.5719
579.2	-85.572
579.3	-85.5721
579.4	-85.5722
579.5	-85.5723
579.6	-85.5724
579.7	-85.5725
579.8	-85.5726
579.9	-85.5727
580	-85.5728
580.1	-85.5729
580.2	-85.573
580.3	-85.5731
580.4	-85.5732
580.5	-85.5733
580.6	-85.5734
580.7	-85.5735
580.8	-85.5736
580.9	-85.5737
581	-85.5738
581.1	-85.5739
581.2	-85.574
581.3	-85.5741
581.4	-85.5742
581.5	-85.5743
581.6	-85.5744
581.7	-85.5745
581.8	-85.5746
581.9	-85.5747
582	-85.5748
582.1	-85.5749
582.2	-85.575
582.3	-85.5751
582.4	-85.5752
582.5	-85.5753
582.6	-85.5754
582.7	-85.5755
582.8	-85.5756
582.9	-85.5757
583	-85.5758
583.1	-85.5759
583.2	-85.576
583.3	-85.5761
583.4	-85.5762
583.5	-85.5763
583.6	-85.5764
583.7	-85.5765
583.8	-85.5766
583.9	-85.5767
584	-85.5768
584.1	-85.5769
584.2	-85.577
584.3	-85.5771
584.4	-85.5772
584.5	-85.5773
584.6	-85.5774
584.7	-85.5775
584.8	-85.5776
584.9	-85.5777
585	-85.5778
585.1	-85.5779
585.2	-85.578
585.3	-85.5781
585.4	-85.5782
585.5	-85.5783
585.6	-85.5784
585.7	-85.5785
585.8	-85.5786
585.9	-85.5787
586	-85.5788
586.1	-85.5789
586.2	-85.579
586.3	-85.5791
586.4	-85.5792
586.5	-85.5793
586.6	-85.5794
586.7	-85.5795
586.8	-85.5796
586.9	-85.5797
587	-85.5798
587.1	-85.5799
587.2	-85.58
587.3	-85.5801
587.4	-85.5802
587.5	-85.5803
587.6	-85.5804
587.7	-85.5805
587.8	-85.5806
587.9	-85.5807
588	-85.5808
588.1	-85.5809
588.2	-85.581
588.3	-85.5811
588.4	-85.5812
588.5	-85.5813
588.6	-85.5814
588.7	-85.5815
588.8	-85.5816
588.9	-85.5817
589	-85.5818
589.1	-85.5819
589.2	-85.582
589.3	-85.5821
589.4	-85.5822
589.5	-85.5823
589.6	-85.5824
589.7	-85.5824
589.8	-85.5825
589.9	-85.5826
590	-85.5827
590.1	-85.5828
590.2	-85.5829
590.3	-85.583
590.4	-85.5831
590.5	-85.5832
590.6	-85.5833
590.7	-85.5834
590.8	-85.5835
590.9	-85.5836
591	-85.5837
591.1	-85.5838
591.2	-85.5839
591.3	-85.584
591.4	-85.5841
591.5	-85.5842
591.6	-85.5843
591.7	-85.5844
591.8	-85.5845
591.9	-85.5846
592	-85.5847
592.1	-85.5848
592.2	-85.5849
592.3	-85.585
592.4	-85.5851
592.5	-85.5852
592.6	-85.5852
592.7	-85.5853
592.8	-85.5854
592.9	-85.5855
593	-85.5856
593.1	-85.5857
593.2	-85.5858
593.3	-85.5859
593.4	-85.586
593.5	-85.5861
593.6	-85.5862
593.7	-85.5863
593.8	-85.5864
593.9	-85.5865
594	-85.5866
594.1	-85.5867
594.2	-85.5868
594.3	-85.5869
594.4	-85.587
594.5	-85.5871
594.6	-85.5872
594.7	-85.5873
594.8	-85.5873
594.9	-85.5874
595	-85.5875
595.1	-85.5876
595.2	-85.5877
595.3	-85.5878
595.4	-85.5879
595.5	-85.588
595.6	-85.5881
595.7	-85.5882
595.8	-85.5883
595.9	-85.5884
596	-85.5885
596.1	-85.5886
596.2	-85.5887
596.3	-85.5888
596.4	-85.5889
596.5	-85.589
596.6	-85.589
596.7	-85.5891
596.8	-85.5892
596.9	-85.5893
597	-85.5894
597.1	-85.5895
597.2	-85.5896
597.3	-85.5897
597.4	-85.5898
597.5	-85.5899
597.6	-85.59
597.7	-85.5901
597.8	-85.5902
597.9	-85.5903
598	-85.5904
598.1	-85.5905
598.2	-85.5905
598.3	-85.5906
598.4	-85.5907
598.5	-85.5908
598.6	-85.5909
598.7	-85.591
598.8	-85.5911
598.9	-85.5912
599	-85.5913
599.1	-85.5914
599.2	-85.5915
599.3	-85.5916
599.4	-85.5917
599.5	-85.5918
599.6	-85.5919
599.7	-85.5919
599.8	-85.592
599.9	-85.5921
600	-85.5922
600.1	-85.5923
600.2	-85.5924
600.3	-85.5925
600.4	-85.5926
600.5	-85.5927
600.6	-85.5928
600.7	-85.5929
600.8	-85.593
600.9	-85.5931
601	-85.5931
601.1	-85.5932
601.2	-85.5933
601.3	-85.5934
601.4	-85.5935
601.5	-85.5936
601.6	-85.5937
601.7	-85.5938
601.8	-85.5939
601.9	-85.594
602	-85.5941
602.1	-85.5942
602.2	-85.5942
602.3	-85.5943
602.4	-85.5944
602.5	-85.5945
602.6	-85.5946
602.7	-85.5947
602.8	-85.5948
602.9	-85.5949
603	-85.595
603.1	-85.5951
603.2	-85.5952
603.3	-85.5953
603.4	-85.5953
603.5	-85.5954
603.6	-85.5955
603.7	-85.5956
603.8	-85.5957
603.9	-85.5958
604	-85.5959
604.1	-85.596
604.2	-85.5961
604.3	-85.5962
604.4	-85.5963
604.5	-85.5963
604.6	-85.5964
604.7	-85.5965
604.8	-85.5966
604.9	-85.5967
605	-85.5968
605.1	-85.5969
605.2	-85.597
605.3	-85.5971
605.4	-85.5972
605.5	-85.5973
605.6	-85.5973
605.7	-85.5974
605.8	-85.5975
605.9	-85.5976
606	-85.5977
606.1	-85.5978
606.2	-85.5979
606.3	-85.598
606.4	-85.5981
606.5	-85.5982
606.6	-85.5982
606.7	-85.5983
606.8	-85.5984
606.9	-85.5985
607	-85.5986
607.1	-85.5987
607.2	-85.5988
607.3	-85.5989
607.4	-85.599
607.5	-85.599
607.6	-85.5991
607.7	-85.5992
607.8	-85.5993
607.9	-85.5994
608	-85.5995
608.1	-85.5996
608.2	-85.5997
608.3	-85.5998
608.4	-85.5999
608.5	-85.5999
608.6	-85.6
608.7	-85.6001
608.8	-85.6002
608.9	-85.6003
609	-85.6004
609.1	-85.6005
609.2	-85.6006
609.3	-85.6007
609.4	-85.6007
609.5	-85.6008
609.6	-85.6009
609.7	-85.601
609.8	-85.6011
609.9	-85.6012
610	-85.6013
610.1	-85.6014
610.2	-85.6015
610.3	-85.6015
610.4	-85.6016
610.5	-85.6017
610.6	-85.6018
610.7	-85.6019
610.8	-85.602
610.9	-85.6021
611	-85.6022
611.1	-85.6022
611.2	-85.6023
611.3	-85.6024
611.4	-85.6025
611.5	-85.6026
611.6	-85.6027
611.7	-85.6028
611.8	-85.6029
611.9	-85.6029
612	-85.603
612.1	-85.6031
612.2	-85.6032
612.3	-85.6033
612.4	-85.6034
612.5	-85.6035
612.6	-85.6036
612.7	-85.6036
612.8	-85.6037
612.9	-85.6038
613	-85.6039
613.1	-85.604
613.2	-85.6041
613.3	-85.6042
613.4	-85.6043
613.5	-85.6043
613.6	-85.6044
613.7	-85.6045
613.8	-85.6046
613.9	-85.6047
614	-85.6048
614.1	-85.6049
614.2	-85.605
614.3	-85.605
614.4	-85.6051
614.5	-85.6052
614.6	-85.6053
614.7	-85.6054
614.8	-85.6055
614.9	-85.6056
615	-85.6056
615.1	-85.6057
615.2	-85.6058
615.3	-85.6059
615.4	-85.606
615.5	-85.6061
615.6	-85.6062
615.7	-85.6063
615.8	-85.6063
615.9	-85.6064
616	-85.6065
616.1	-85.6066
616.2	-85.6067
616.3	-85.6068
616.4	-85.6069
616.5	-85.6069
616.6	-85.607
616.7	-85.6071
616.8	-85.6072
616.9	-85.6073
617	-85.6074
617.1	-85.6075
617.2	-85.6075
617.3	-85.6076
617.4	-85.6077
617.5	-85.6078
617.6	-85.6079
617.7	-85.608
617.8	-85.6081
617.9	-85.6081
618	-85.6082
618.1	-85.6083
618.2	-85.6084
618.3	-85.6085
618.4	-85.6086
618.5	-85.6086
618.6	-85.6087
618.7	-85.6088
618.8	-85.6089
618.9	-85.609
619	-85.6091
619.1	-85.6092
619.2	-85.6092
619.3	-85.6093
619.4	-85.6094
619.5	-85.6095
619.6	-85.6096
619.7	-85.6097
619.8	-85.6098
619.9	-85.6098
620	-85.6099
620.1	-85.61
620.2	-85.6101
620.3	-85.6102
620.4	-85.6103
620.5	-85.6103
620.6	-85.6104
620.7	-85.6105
620.8	-85.6106
620.9	-85.6107
621	-85.6108
621.1	-85.6108
621.2	-85.6109
621.3	-85.611
621.4	-85.6111
621.5	-85.6112
621.6	-85.6113
621.7	-85.6114
621.8	-85.6114
621.9	-85.6115
622	-85.6116
622.1	-85.6117
622.2	-85.6118
622.3	-85.6119
622.4	-85.6119
622.5	-85.612
622.6	-85.6121
622.7	-85.6122
622.8	-85.6123
622.9	-85.6124
623	-85.6124
623.1	-85.6125
623.2	-85.6126
623.3	-85.6127
623.4	-85.6128
623.5	-85.6129
623.6	-85.6129
623.7	-85.613
623.8	-85.6131
623.9	-85.6132
624	-85.6133
624.1	-85.6134
624.2	-85.6134
624.3	-85.6135
624.4	-85.6136
624.5	-85.6137
624.6	-85.6138
624.7	-85.6138
624.8	-85.6139
624.9	-85.614
625	-85.6141
625.1	-85.6142
625.2	-85.6143
625.3	-85.6143
625.4	-85.6144
625.5	-85.6145
625.6	-85.6146
625.7	-85.6147
625.8	-85.6148
625.9	-85.6148
626	-85.6149
626.1	-85.615
626.2	-85.6151
626.3	-85.6152
626.4	-85.6153
626.5	-85.6153
626.6	-85.6154
626.7	-85.6155
626.8	-85.6156
626.9	-85.6157
627	-85.6157
627.1	-85.6158
627.2	-85.6159
627.3	-85.616
627.4	-85.6161
627.5	-85.6162
627.6	-85.6162
627.7	-85.6163
627.8	-85.6164
627.9	-85.6165
628	-85.6166
628.1	-85.6166
628.2	-85.6167
628.3	-85.6168
628.4	-85.6169
628.5	-85.617
628.6	-85.617
628.7	-85.6171
628.8	-85.6172
628.9	-85.6173
629	-85.6174
629.1	-85.6175
629.2	-85.6175
629.3	-85.6176
629.4	-85.6177
629.5	-85.6178
629.6	-85.6179
629.7	-85.6179
629.8	-85.618
629.9	-85.6181
630	-85.6182
630.1	-85.6183
630.2	-85.6183
630.3	-85.6184
630.4	-85.6185
630.5	-85.6186
630.6	-85.6187
630.7	-85.6187
630.8	-85.6188
630.9	-85.6189
631	-85.619
631.1	-85.6191
631.2	-85.6191
631.3	-85.6192
631.4	-85.6193
631.5	-85.6194
631.6	-85.6195
631.7	-85.6195
631.8	-85.6196
631.9	-85.6197
632	-85.6198
632.1	-85.6199
632.2	-85.6199
632.3	-85.62
632.4	-85.6201
632.5	-85.6202
632.6	-85.6203
632.7	-85.6203
632.8	-85.6204
632.9	-85.6205
633	-85.6206
633.1	-85.6207
633.2	-85.6207
633.3	-85.6208
633.4	-85.6209
633.5	-85.621
633.6	-85.6211
633.7	-85.6211
633.8	-85.6212
633.9	-85.6213
634	-85.6214
634.1	-85.6215
634.2	-85.6215
634.3	-85.6216
634.4	-85.6217
634.5	-85.6218
634.6	-85.6219
634.7	-85.6219
634.8	-85.622
634.9	-85.6221
635	-85.6222
635.1	-85.6223
635.2	-85.6223
635.3	-85.6224
635.4	-85.6225
635.5	-85.6226
635.6	-85.6226
635.7	-85.6227
635.8	-85.6228
635.9	-85.6229
636	-85.623
636.1	-85.623
636.2	-85.6231
636.3	-85.6232
636.4	-85.6233
636.5	-85.6234
636.6	-85.6234
636.7	-85.6235
636.8	-85.6236
636.9	-85.6237
637	-85.6237
637.1	-85.6238
637.2	-85.6239
637.3	-85.624
637.4	-85.6241
637.5	-85.6241
637.6	-85.6242
637.7	-85.6243
637.8	-85.6244
637.9	-85.6244
638	-85.6245
638.1	-85.6246
638.2	-85.6247
638.3	-85.6248
638.4	-85.6248
638.5	-85.6249
638.6	-85.625
638.7	-85.6251
638.8	-85.6251
638.9	-85.6252
639	-85.6253
639.1	-85.6254
639.2	-85.6255
639.3	-85.6255
639.4	-85.6256
639.5	-85.6257
639.6	-85.6258
639.7	-85.6258
639.8	-85.6259
639.9	-85.626
640	-85.6261
640.1	-85.6262
640.2	-85.6262
640.3	-85.6263
640.4	-85.6264
640.5	-85.6265
640.6	-85.6265
640.7	-85.6266
640.8	-85.6267
640.9	-85.6268
641	-85.6268
641.1	-85.6269
641.2	-85.627
641.3	-85.6271
641.4	-85.6271
641.5	-85.6272
641.6	-85.6273
641.7	-85.6274
641.8	-85.6275
641.9	-85.6275
642	-85.6276
642.1	-85.6277
642.2	-85.6278
642.3	-85.6278
642.4	-85.6279
642.5	-85.628
642.6	-85.6281
642.7	-85.6281
642.8	-85.6282
642.9	-85.6283
643	-85.6284
643.1	-85.6284
643.2	-85.6285
643.3	-85.6286
643.4	-85.6287
643.5	-85.6288
643.6	-85.6288
643.7	-85.6289
643.8	-85.629
643.9	-85.6291
644	-85.6291
644.1	-85.6292
644.2	-85.6293
644.3	-85.6294
644.4	-85.6294
644.5	-85.6295
644.6	-85.6296
644.7	-85.6297
644.8	-85.6297
644.9	-85.6298
645	-85.6299
645.1	-85.63
645.2	-85.63
645.3	-85.6301
645.4	-85.6302
645.5	-85.6303
645.6	-85.6303
645.7	-85.6304
645.8	-85.6305
645.9	-85.6306
646	-85.6306
646.1	-85.6307
646.2	-85.6308
646.3	-85.6309
646.4	-85.6309
646.5	-85.631
646.6	-85.6311
646.7	-85.6312
646.8	-85.6312
646.9	-85.6313
647	-85.6314
647.1	-85.6315
647.2	-85.6315
647.3	-85.6316
647.4	-85.6317
647.5	-85.6318
647.6	-85.6318
647.7	-85.6319
647.8	-85.632
647.9	-85.6321
648	-85.6321
648.1	-85.6322
648.2	-85.6323
648.3	-85.6324
648.4	-85.6324
648.5	-85.6325
648.6	-85.6326
648.7	-85.6327
648.8	-85.6327
648.9	-85.6328
649	-85.6329
649.1	-85.633
649.2	-85.633
649.3	-85.6331
649.4	-85.6332
649.5	-85.6332
649.6	-85.6333
649.7	-85.6334
649.8	-85.6335
649.9	-85.6335
650	-85.6336
650.1	-85.6337
650.2	-85.6338
650.3	-85.6338
650.4	-85.6339
650.5	-85.634
650.6	-85.6341
650.7	-85.6341
650.8	-85.6342
650.9	-85.6343
651	-85.6344
651.1	-85.6344
651.2	-85.6345
651.3	-85.6346
651.4	-85.6346
651.5	-85.6347
651.6	-85.6348
651.7	-85.6349
651.8	-85.6349
651.9	-85.635
652	-85.6351
652.1	-85.6352
652.2	-85.6352
652.3	-85.6353
652.4	-85.6354
652.5	-85.6354
652.6	-85.6355
652.7	-85.6356
652.8	-85.6357
652.9	-85.6357
653	-85.6358
653.1	-85.6359
653.2	-85.636
653.3	-85.636
653.4	-85.6361
653.5	-85.6362
653.6	-85.6362
653.7	-85.6363
653.8	-85.6364
653.9	-85.6365
654	-85.6365
654.1	-85.6366
654.2	-85.6367
654.3	-85.6368
654.4	-85.6368
654.5	-85.6369
654.6	-85.637
654.7	-85.637
654.8	-85.6371
654.9	-85.6372
655	-85.6373
655.1	-85.6373
655.2	-85.6374
655.3	-85.6375
655.4	-85.6375
655.5	-85.6376
655.6	-85.6377
655.7	-85.6378
655.8	-85.6378
655.9	-85.6379
656	-85.638
656.1	-85.6381
656.2	-85.6381
656.3	-85.6382
656.4	-85.6383
656.5	-85.6383
656.6	-85.6384
656.7	-85.6385
656.8	-85.6386
656.9	-85.6386
657	-85.6387
657.1	-85.6388
657.2	-85.6388
657.3	-85.6389
657.4	-85.639
657.5	-85.6391
657.6	-85.6391
657.7	-85.6392
657.8	-85.6393
657.9	-85.6393
658	-85.6394
658.1	-85.6395
658.2	-85.6396
658.3	-85.6396
658.4	-85.6397
658.5	-85.6398
658.6	-85.6398
658.7	-85.6399
658.8	-85.64
658.9	-85.64
659	-85.6401
659.1	-85.6402
659.2	-85.6403
659.3	-85.6403
659.4	-85.6404
659.5	-85.6405
659.6	-85.6405
659.7	-85.6406
659.8	-85.6407
659.9	-85.6408
660	-85.6408
660.1	-85.6409
660.2	-85.641
660.3	-85.641
660.4	-85.6411
660.5	-85.6412
660.6	-85.6412
660.7	-85.6413
660.8	-85.6414
660.9	-85.6415
661	-85.6415
661.1	-85.6416
661.2	-85.6417
661.3	-85.6417
661.4	-85.6418
661.5	-85.6419
661.6	-85.6419
661.7	-85.642
661.8	-85.6421
661.9	-85.6422
662	-85.6422
662.1	-85.6423
662.2	-85.6424
662.3	-85.6424
662.4	-85.6425
662.5	-85.6426
662.6	-85.6426
662.7	-85.6427
662.8	-85.6428
662.9	-85.6429
663	-85.6429
663.1	-85.643
663.2	-85.6431
663.3	-85.6431
663.4	-85.6432
663.5	-85.6433
663.6	-85.6433
663.7	-85.6434
663.8	-85.6435
663.9	-85.6436
664	-85.6436
664.1	-85.6437
664.2	-85.6438
664.3	-85.6438
664.4	-85.6439
664.5	-85.644
664.6	-85.644
664.7	-85.6441
664.8	-85.6442
664.9	-85.6442
665	-85.6443
665.1	-85.6444
665.2	-85.6444
665.3	-85.6445
665.4	-85.6446
665.5	-85.6447
665.6	-85.6447
665.7	-85.6448
665.8	-85.6449
665.9	-85.6449
666	-85.645
666.1	-85.6451
666.2	-85.6451
666.3	-85.6452
666.4	-85.6453
666.5	-85.6453
666.6	-85.6454
666.7	-85.6455
666.8	-85.6455
666.9	-85.6456
667	-85.6457
667.1	-85.6458
667.2	-85.6458
667.3	-85.6459
667.4	-85.646
667.5	-85.646
667.6	-85.6461
667.7	-85.6462
667.8	-85.6462
667.9	-85.6463
668	-85.6464
668.1	-85.6464
668.2	-85.6465
668.3	-85.6466
668.4	-85.6466
668.5	-85.6467
668.6	-85.6468
668.7	-85.6468
668.8	-85.6469
668.9	-85.647
669	-85.647
669.1	-85.6471
669.2	-85.6472
669.3	-85.6472
669.4	-85.6473
669.5	-85.6474
669.6	-85.6474
669.7	-85.6475
669.8	-85.6476
669.9	-85.6477
670	-85.6477
670.1	-85.6478
670.2	-85.6479
670.3	-85.6479
670.4	-85.648
670.5	-85.6481
670.6	-85.6481
670.7	-85.6482
670.8	-85.6483
670.9	-85.6483
671	-85.6484
671.1	-85.6485
671.2	-85.6485
671.3	-85.6486
671.4	-85.6487
671.5	-85.6487
671.6	-85.6488
671.7	-85.6489
671.8	-85.6489
671.9	-85.649
672	-85.6491
672.1	-85.6491
672.2	-85.6492
672.3	-85.6493
672.4	-85.6493
672.5	-85.6494
672.6	-85.6495
672.7	-85.6495
672.8	-85.6496
672.9	-85.6497
673	-85.6497
673.1	-85.6498
673.2	-85.6499
673.3	-85.6499
673.4	-85.65
673.5	-85.6501
673.6	-85.6501
673.7	-85.6502
673.8	-85.6503
673.9	-85.6503
674	-85.6504
674.1	-85.6505
674.2	-85.6505
674.3	-85.6506
674.4	-85.6507
674.5	-85.6507
674.6	-85.6508
674.7	-85.6509
674.8	-85.6509
674.9	-85.651
675	-85.6511
675.1	-85.6511
675.2	-85.6512
675.3	-85.6512
675.4	-85.6513
675.5	-85.6514
675.6	-85.6514
675.7	-85.6515
675.8	-85.6516
675.9	-85.6516
676	-85.6517
676.1	-85.6518
676.2	-85.6518
676.3	-85.6519
676.4	-85.652
676.5	-85.652
676.6	-85.6521
676.7	-85.6522
676.8	-85.6522
676.9	-85.6523
677	-85.6524
677.1	-85.6524
677.2	-85.6525
677.3	-85.6526
677.4	-85.6526
677.5	-85.6527
677.6	-85.6528
677.7	-85.6528
677.8	-85.6529
677.9	-85.6529
678	-85.653
678.1	-85.6531
678.2	-85.6531
678.3	-85.6532
678.4	-85.6533
678.5	-85.6533
678.6	-85.6534
678.7	-85.6535
678.8	-85.6535
678.9	-85.6536
679	-85.6537
679.1	-85.6537
679.2	-85.6538
679.3	-85.6539
679.4	-85.6539
679.5	-85.654
679.6	-85.6541
679.7	-85.6541
679.8	-85.6542
679.9	-85.6542
680	-85.6543
680.1	-85.6544
680.2	-85.6544
680.3	-85.6545
680.4	-85.6546
680.5	-85.6546
680.6	-85.6547
680.7	-85.6548
680.8	-85.6548
680.9	-85.6549
681	-85.655
681.1	-85.655
681.2	-85.6551
681.3	-85.6551
681.4	-85.6552
681.5	-85.6553
681.6	-85.6553
681.7	-85.6554
681.8	-85.6555
681.9	-85.6555
682	-85.6556
682.1	-85.6557
682.2	-85.6557
682.3	-85.6558
682.4	-85.6558
682.5	-85.6559
682.6	-85.656
682.7	-85.656
682.8	-85.6561
682.9	-85.6562
683	-85.6562
683.1	-85.6563
683.2	-85.6564
683.3	-85.6564
683.4	-85.6565
683.5	-85.6565
683.6	-85.6566
683.7	-85.6567
683.8	-85.6567
683.9	-85.6568
684	-85.6569
684.1	-85.6569
684.2	-85.657
684.3	-85.6571
684.4	-85.6571
684.5	-85.6572
684.6	-85.6572
684.7	-85.6573
684.8	-85.6574
684.9	-85.6574
685	-85.6575
685.1	-85.6576
685.2	-85.6576
685.3	-85.6577
685.4	-85.6577
685.5	-85.6578
685.6	-85.6579
685.7	-85.6579
685.8	-85.658
685.9	-85.6581
686	-85.6581
686.1	-85.6582
686.2	-85.6583
686.3	-85.6583
686.4	-85.6584
686.5	-85.6584
686.6	-85.6585
686.7	-85.6586
686.8	-85.6586
686.9	-85.6587
687	-85.6588
687.1	-85.6588
687.2	-85.6589
687.3	-85.6589
687.4	-85.659
687.5	-85.6591
687.6	-85.6591
687.7	-85.6592
687.8	-85.6592
687.9	-85.6593
688	-85.6594
688.1	-85.6594
688.2	-85.6595
688.3	-85.6596
688.4	-85.6596
688.5	-85.6597
688.6	-85.6597
688.7	-85.6598
688.8	-85.6599
688.9	-85.6599
689	-85.66
689.1	-85.6601
689.2	-85.6601
689.3	-85.6602
689.4	-85.6602
689.5	-85.6603
689.6	-85.6604
689.7	-85.6604
689.8	-85.6605
689.9	-85.6606
690	-85.6606
690.1	-85.6607
690.2	-85.6607
690.3	-85.6608
690.4	-85.6609
690.5	-85.6609
690.6	-85.661
690.7	-85.661
690.8	-85.6611
690.9	-85.6612
691	-85.6612
691.1	-85.6613
691.2	-85.6614
691.3	-85.6614
691.4	-85.6615
691.5	-85.6615
691.6	-85.6616
691.7	-85.6617
691.8	-85.6617
691.9	-85.6618
692	-85.6618
692.1	-85.6619
692.2	-85.662
692.3	-85.662
692.4	-85.6621
692.5	-85.6621
692.6	-85.6622
692.7	-85.6623
692.8	-85.6623
692.9	-85.6624
693	-85.6624
693.1	-85.6625
693.2	-85.6626
693.3	-85.6626
693.4	-85.6627
693.5	-85.6628
693.6	-85.6628
693.7	-85.6629
693.8	-85.6629
693.9	-85.663
694	-85.6631
694.1	-85.6631
694.2	-85.6632
694.3	-85.6632
694.4	-85.6633
694.5	-85.6634
694.6	-85.6634
694.7	-85.6635
694.8	-85.6635
694.9	-85.6636
695	-85.6637
695.1	-85.6637
695.2	-85.6638
695.3	-85.6638
695.4	-85.6639
695.5	-85.664
695.6	-85.664
695.7	-85.6641
695.8	-85.6641
695.9	-85.6642
696	-85.6643
696.1	-85.6643
696.2	-85.6644
696.3	-85.6644
696.4	-85.6645
696.5	-85.6646
696.6	-85.6646
696.7	-85.6647
696.8	-85.6647
696.9	-85.6648
697	-85.6649
697.1	-85.6649
697.2	-85.665
697.3	-85.665
697.4	-85.6651
697.5	-85.6652
697.6	-85.6652
697.7	-85.6653
697.8	-85.6653
697.9	-85.6654
698	-85.6655
698.1	-85.6655
698.2	-85.6656
698.3	-85.6656
698.4	-85.6657
698.5	-85.6658
698.6	-85.6658
698.7	-85.6659
698.8	-85.6659
698.9	-85.666
699	-85.6661
699.1	-85.6661
699.2	-85.6662
699.3	-85.6662
699.4	-85.6663
699.5	-85.6663
699.6	-85.6664
699.7	-85.6665
699.8	-85.6665
699.9	-85.6666
700	-85.6666
700.1	-85.6667
700.2	-85.6668
700.3	-85.6668
700.4	-85.6669
700.5	-85.6669
700.6	-85.667
700.7	-85.6671
700.8	-85.6671
700.9	-85.6672
701	-85.6672
701.1	-85.6673
701.2	-85.6673
701.3	-85.6674
701.4	-85.6675
701.5	-85.6675
701.6	-85.6676
701.7	-85.6676
701.8	-85.6677
701.9	-85.6678
702	-85.6678
702.1	-85.6679
702.2	-85.6679
702.3	-85.668
702.4	-85.668
702.5	-85.6681
702.6	-85.6682
702.7	-85.6682
702.8	-85.6683
702.9	-85.6683
703	-85.6684
703.1	-85.6685
703.2	-85.6685
703.3	-85.6686
703.4	-85.6686
703.5	-85.6687
703.6	-85.6687
703.7	-85.6688
703.8	-85.6689
703.9	-85.6689
704	-85.669
704.1	-85.669
704.2	-85.6691
704.3	-85.6692
704.4	-85.6692
704.5	-85.6693
704.6	-85.6693
704.7	-85.6694
704.8	-85.6694
704.9	-85.6695
705	-85.6696
705.1	-85.6696
705.2	-85.6697
705.3	-85.6697
705.4	-85.6698
705.5	-85.6698
705.6	-85.6699
705.7	-85.67
705.8	-85.67
705.9	-85.6701
706	-85.6701
706.1	-85.6702
706.2	-85.6702
706.3	-85.6703
706.4	-85.6704
706.5	-85.6704
706.6	-85.6705
706.7	-85.6705
706.8	-85.6706
706.9	-85.6706
707	-85.6707
707.1	-85.6708
707.2	-85.6708
707.3	-85.6709
707.4	-85.6709
707.5	-85.671
707.6	-85.671
707.7	-85.6711
707.8	-85.6712
707.9	-85.6712
708	-85.6713
708.1	-85.6713
708.2	-85.6714
708.3	-85.6714
708.4	-85.6715
708.5	-85.6716
708.6	-85.6716
708.7	-85.6717
708.8	-85.6717
708.9	-85.6718
709	-85.6718
709.1	-85.6719
709.2	-85.672
709.3	-85.672
709.4	-85.6721
709.5	-85.6721
709.6	-85.6722
709.7	-85.6722
709.8	-85.6723
709.9	-85.6724
710	-85.6724
710.1	-85.6725
710.2	-85.6725
710.3	-85.6726
710.4	-85.6726
710.5	-85.6727
710.6	-85.6727
710.7	-85.6728
710.8	-85.6729
710.9	-85.6729
711	-85.673
711.1	-85.673
711.2	-85.6731
711.3	-85.6731
711.4	-85.6732
711.5	-85.6733
711.6	-85.6733
711.7	-85.6734
711.8	-85.6734
711.9	-85.6735
712	-85.6735
712.1	-85.6736
712.2	-85.6736
712.3	-85.6737
712.4	-85.6738
712.5	-85.6738
712.6	-85.6739
712.7	-85.6739
712.8	-85.674
712.9	-85.674
713	-85.6741
713.1	-85.6741
713.2	-85.6742
713.3	-85.6743
713.4	-85.6743
713.5	-85.6744
713.6	-85.6744
713.7	-85.6745
713.8	-85.6745
713.9	-85.6746
714	-85.6746
714.1	-85.6747
714.2	-85.6748
714.3	-85.6748
714.4	-85.6749
714.5	-85.6749
714.6	-85.675
714.7	-85.675
714.8	-85.6751
714.9	-85.6751
715	-85.6752
715.1	-85.6753
715.2	-85.6753
715.3	-85.6754
715.4	-85.6754
715.5	-85.6755
715.6	-85.6755
715.7	-85.6756
715.8	-85.6756
715.9	-85.6757
716	-85.6757
716.1	-85.6758
716.2	-85.6759
716.3	-85.6759
716.4	-85.676
716.5	-85.676
716.6	-85.6761
716.7	-85.6761
716.8	-85.6762
716.9	-85.6762
717	-85.6763
717.1	-85.6764
717.2	-85.6764
717.3	-85.6765
717.4	-85.6765
717.5	-85.6766
717.6	-85.6766
717.7	-85.6767
717.8	-85.6767
717.9	-85.6768
718	-85.6768
718.1	-85.6769
718.2	-85.677
718.3	-85.677
718.4	-85.6771
718.5	-85.6771
718.6	-85.6772
718.7	-85.6772
718.8	-85.6773
718.9	-85.6773
719	-85.6774
719.1	-85.6774
719.2	-85.6775
719.3	-85.6775
719.4	-85.6776
719.5	-85.6777
719.6	-85.6777
719.7	-85.6778
719.8	-85.6778
719.9	-85.6779
720	-85.6779
720.1	-85.678
720.2	-85.678
720.3	-85.6781
720.4	-85.6781
720.5	-85.6782
720.6	-85.6783
720.7	-85.6783
720.8	-85.6784
720.9	-85.6784
721	-85.6785
721.1	-85.6785
721.2	-85.6786
721.3	-85.6786
721.4	-85.6787
721.5	-85.6787
721.6	-85.6788
721.7	-85.6788
721.8	-85.6789
721.9	-85.6789
722	-85.679
722.1	-85.6791
722.2	-85.6791
722.3	-85.6792
722.4	-85.6792
722.5	-85.6793
722.6	-85.6793
722.7	-85.6794
722.8	-85.6794
722.9	-85.6795
723	-85.6795
723.1	-85.6796
723.2	-85.6796
723.3	-85.6797
723.4	-85.6797
723.5	-85.6798
723.6	-85.6799
723.7	-85.6799
723.8	-85.68
723.9	-85.68
724	-85.6801
724.1	-85.6801
724.2	-85.6802
724.3	-85.6802
724.4	-85.6803
724.5	-85.6803
724.6	-85.6804
724.7	-85.6804
724.8	-85.6805
724.9	-85.6805
725	-85.6806
725.1	-85.6807
725.2	-85.6807
725.3	-85.6808
725.4	-85.6808
725.5	-85.6809
725.6	-85.6809
725.7	-85.681
725.8	-85.681
725.9	-85.6811
726	-85.6811
726.1	-85.6812
726.2	-85.6812
726.3	-85.6813
726.4	-85.6813
726.5	-85.6814
726.6	-85.6814
726.7	-85.6815
726.8	-85.6815
726.9	-85.6816
727	-85.6816
727.1	-85.6817
727.2	-85.6818
727.3	-85.6818
727.4	-85.6819
727.5	-85.6819
727.6	-85.682
727.7	-85.682
727.8	-85.6821
727.9	-85.6821
728	-85.6822
728.1	-85.6822
728.2	-85.6823
728.3	-85.6823
728.4	-85.6824
728.5	-85.6824
728.6	-85.6825
728.7	-85.6825
728.8	-85.6826
728.9	-85.6826
729	-85.6827
729.1	-85.6827
729.2	-85.6828
729.3	-85.6828
729.4	-85.6829
729.5	-85.683
729.6	-85.683
729.7	-85.6831
729.8	-85.6831
729.9	-85.6832
730	-85.6832
730.1	-85.6833
730.2	-85.6833
730.3	-85.6834
730.4	-85.6834
730.5	-85.6835
730.6	-85.6835
730.7	-85.6836
730.8	-85.6836
730.9	-85.6837
731	-85.6837
731.1	-85.6838
731.2	-85.6838
731.3	-85.6839
731.4	-85.6839
731.5	-85.684
731.6	-85.684
731.7	-85.6841
731.8	-85.6841
731.9	-85.6842
732	-85.6842
732.1	-85.6843
732.2	-85.6843
732.3	-85.6844
732.4	-85.6844
732.5	-85.6845
732.6	-85.6845
732.7	-85.6846
732.8	-85.6846
732.9	-85.6847
733	-85.6847
733.1	-85.6848
733.2	-85.6849
733.3	-85.6849
733.4	-85.685
733.5	-85.685
733.6	-85.6851
733.7	-85.6851
733.8	-85.6852
733.9	-85.6852
734	-85.6853
734.1	-85.6853
734.2	-85.6854
734.3	-85.6854
734.4	-85.6855
734.5	-85.6855
734.6	-85.6856
734.7	-85.6856
734.8	-85.6857
734.9	-85.6857
735	-85.6858
735.1	-85.6858
735.2	-85.6859
735.3	-85.6859
735.4	-85.686
735.5	-85.686
735.6	-85.6861
735.7	-85.6861
735.8	-85.6862
735.9	-85.6862
736	-85.6863
736.1	-85.6863
736.2	-85.6864
736.3	-85.6864
736.4	-85.6865
736.5	-85.6865
736.6	-85.6866
736.7	-85.6866
736.8	-85.6867
736.9	-85.6867
737	-85.6868
737.1	-85.6868
737.2	-85.6869
737.3	-85.6869
737.4	-85.687
737.5	-85.687
737.6	-85.6871
737.7	-85.6871
737.8	-85.6872
737.9	-85.6872
738	-85.6873
738.1	-85.6873
738.2	-85.6874
738.3	-85.6874
738.4	-85.6875
738.5	-85.6875
738.6	-85.6876
738.7	-85.6876
738.8	-85.6877
738.9	-85.6877
739	-85.6878
739.1	-85.6878
739.2	-85.6879
739.3	-85.6879
739.4	-85.688
739.5	-85.688
739.6	-85.6881
739.7	-85.6881
739.8	-85.6882
739.9	-85.6882
740	-85.6883
740.1	-85.6883
740.2	-85.6884
740.3	-85.6884
740.4	-85.6885
740.5	-85.6885
740.6	-85.6886
740.7	-85.6886
740.8	-85.6887
740.9	-85.6887
741	-85.6888
741.1	-85.6888
741.2	-85.6889
741.3	-85.6889
741.4	-85.689
741.5	-85.689
741.6	-85.6891
741.7	-85.6891
741.8	-85.6892
741.9	-85.6892
742	-85.6892
742.1	-85.6893
742.2	-85.6893
742.3	-85.6894
742.4	-85.6894
742.5	-85.6895
742.6	-85.6895
742.7	-85.6896
742.8	-85.6896
742.9	-85.6897
743	-85.6897
743.1	-85.6898
743.2	-85.6898
743.3	-85.6899
743.4	-85.6899
743.5	-85.69
743.6	-85.69
743.7	-85.6901
743.8	-85.6901
743.9	-85.6902
744	-85.6902
744.1	-85.6903
744.2	-85.6903
744.3	-85.6904
744.4	-85.6904
744.5	-85.6905
744.6	-85.6905
744.7	-85.6906
744.8	-85.6906
744.9	-85.6907
745	-85.6907
745.1	-85.6908
745.2	-85.6908
745.3	-85.6909
745.4	-85.6909
745.5	-85.691
745.6	-85.691
745.7	-85.691
745.8	-85.6911
745.9	-85.6911
746	-85.6912
746.1	-85.6912
746.2	-85.6913
746.3	-85.6913
746.4	-85.6914
746.5	-85.6914
746.6	-85.6915
746.7	-85.6915
746.8	-85.6916
746.9	-85.6916
747	-85.6917
747.1	-85.6917
747.2	-85.6918
747.3	-85.6918
747.4	-85.6919
747.5	-85.6919
747.6	-85.692
747.7	-85.692
747.8	-85.6921
747.9	-85.6921
748	-85.6922
748.1	-85.6922
748.2	-85.6922
748.3	-85.6923
748.4	-85.6923
748.5	-85.6924
748.6	-85.6924
748.7	-85.6925
748.8	-85.6925
748.9	-85.6926
749	-85.6926
749.1	-85.6927
749.2	-85.6927
749.3	-85.6928
749.4	-85.6928
749.5	-85.6929
749.6	-85.6929
749.7	-85.693
749.8	-85.693
749.9	-85.6931
750	-85.6931
750.1	-85.6931
750.2	-85.6932
750.3	-85.6932
750.4	-85.6933
750.5	-85.6933
750.6	-85.6934
750.7	-85.6934
750.8	-85.6935
750.9	-85.6935
751	-85.6936
751.1	-85.6936
751.2	-85.6937
751.3	-85.6937
751.4	-85.6938
751.5	-85.6938
751.6	-85.6939
751.7	-85.6939
751.8	-85.694
751.9	-85.694
752	-85.694
752.1	-85.6941
752.2	-85.6941
752.3	-85.6942
752.4	-85.6942
752.5	-85.6943
752.6	-85.6943
752.7	-85.6944
752.8	-85.6944
752.9	-85.6945
753	-85.6945
753.1	-85.6946
753.2	-85.6946
753.3	-85.6947
753.4	-85.6947
753.5	-85.6947
753.6	-85.6948
753.7	-85.6948
753.8	-85.6949
753.9	-85.6949
754	-85.695
754.1	-85.695
754.2	-85.6951
754.3	-85.6951
754.4	-85.6952
754.5	-85.6952
754.6	-85.6953
754.7	-85.6953
754.8	-85.6953
754.9	-85.6954
755	-85.6954
755.1	-85.6955
755.2	-85.6955
755.3	-85.6956
755.4	-85.6956
755.5	-85.6957
755.6	-85.6957
755.7	-85.6958
755.8	-85.6958
755.9	-85.6959
756	-85.6959
756.1	-85.696
756.2	-85.696
756.3	-85.696
756.4	-85.6961
756.5	-85.6961
756.6	-85.6962
756.7	-85.6962
756.8	-85.6963
756.9	-85.6963
757	-85.6964
757.1	-85.6964
757.2	-85.6965
757.3	-85.6965
757.4	-85.6965
757.5	-85.6966
757.6	-85.6966
757.7	-85.6967
757.8	-85.6967
757.9	-85.6968
758	-85.6968
758.1	-85.6969
758.2	-85.6969
758.3	-85.697
758.4	-85.697
758.5	-85.6971
758.6	-85.6971
758.7	-85.6971
758.8	-85.6972
758.9	-85.6972
759	-85.6973
759.1	-85.6973
759.2	-85.6974
759.3	-85.6974
759.4	-85.6975
759.5	-85.6975
759.6	-85.6976
759.7	-85.6976
759.8	-85.6976
759.9	-85.6977
760	-85.6977
760.1	-85.6978
760.2	-85.6978
760.3	-85.6979
760.4	-85.6979
760.5	-85.698
760.6	-85.698
760.7	-85.698
760.8	-85.6981
760.9	-85.6981
761	-85.6982
761.1	-85.6982
761.2	-85.6983
761.3	-85.6983
761.4	-85.6984
761.5	-85.6984
761.6	-85.6985
761.7	-85.6985
761.8	-85.6985
761.9	-85.6986
762	-85.6986
762.1	-85.6987
762.2	-85.6987
762.3	-85.6988
762.4	-85.6988
762.5	-85.6989
762.6	-85.6989
762.7	-85.6989
762.8	-85.699
762.9	-85.699
763	-85.6991
763.1	-85.6991
763.2	-85.6992
763.3	-85.6992
763.4	-85.6993
763.5	-85.6993
763.6	-85.6994
763.7	-85.6994
763.8	-85.6994
763.9	-85.6995
764	-85.6995
764.1	-85.6996
764.2	-85.6996
764.3	-85.6997
764.4	-85.6997
764.5	-85.6998
764.6	-85.6998
764.7	-85.6998
764.8	-85.6999
764.9	-85.6999
765	-85.7
765.1	-85.7
765.2	-85.7001
765.3	-85.7001
765.4	-85.7002
765.5	-85.7002
765.6	-85.7002
765.7	-85.7003
765.8	-85.7003
765.9	-85.7004
766	-85.7004
766.1	-85.7005
766.2	-85.7005
766.3	-85.7005
766.4	-85.7006
766.5	-85.7006
766.6	-85.7007
766.7	-85.7007
766.8	-85.7008
766.9	-85.7008
767	-85.7009
767.1	-85.7009
767.2	-85.7009
767.3	-85.701
767.4	-85.701
767.5	-85.7011
767.6	-85.7011
767.7	-85.7012
767.8	-85.7012
767.9	-85.7013
768	-85.7013
768.1	-85.7013
768.2	-85.7014
768.3	-85.7014
768.4	-85.7015
768.5	-85.7015
768.6	-85.7016
768.7	-85.7016
768.8	-85.7016
768.9	-85.7017
769	-85.7017
769.1	-85.7018
769.2	-85.7018
769.3	-85.7019
769.4	-85.7019
769.5	-85.702
769.6	-85.702
769.7	-85.702
769.8	-85.7021
769.9	-85.7021
770	-85.7022
770.1	-85.7022
770.2	-85.7023
770.3	-85.7023
770.4	-85.7023
770.5	-85.7024
770.6	-85.7024
770.7	-85.7025
770.8	-85.7025
770.9	-85.7026
771	-85.7026
771.1	-85.7026
771.2	-85.7027
771.3	-85.7027
771.4	-85.7028
771.5	-85.7028
771.6	-85.7029
771.7	-85.7029
771.8	-85.7029
771.9	-85.703
772	-85.703
772.1	-85.7031
772.2	-85.7031
772.3	-85.7032
772.4	-85.7032
772.5	-85.7032
772.6	-85.7033
772.7	-85.7033
772.8	-85.7034
772.9	-85.7034
773	-85.7035
773.1	-85.7035
773.2	-85.7035
773.3	-85.7036
773.4	-85.7036
773.5	-85.7037
773.6	-85.7037
773.7	-85.7038
773.8	-85.7038
773.9	-85.7038
774	-85.7039
774.1	-85.7039
774.2	-85.704
774.3	-85.704
774.4	-85.7041
774.5	-85.7041
774.6	-85.7041
774.7	-85.7042
774.8	-85.7042
774.9	-85.7043
775	-85.7043
775.1	-85.7044
775.2	-85.7044
775.3	-85.7044
775.4	-85.7045
775.5	-85.7045
775.6	-85.7046
775.7	-85.7046
775.8	-85.7047
775.9	-85.7047
776	-85.7047
776.1	-85.7048
776.2	-85.7048
776.3	-85.7049
776.4	-85.7049
776.5	-85.7049
776.6	-85.705
776.7	-85.705
776.8	-85.7051
776.9	-85.7051
777	-85.7052
777.1	-85.7052
777.2	-85.7052
777.3	-85.7053
777.4	-85.7053
777.5	-85.7054
777.6	-85.7054
777.7	-85.7055
777.8	-85.7055
777.9	-85.7055
778	-85.7056
778.1	-85.7056
778.2	-85.7057
778.3	-85.7057
778.4	-85.7057
778.5	-85.7058
778.6	-85.7058
778.7	-85.7059
778.8	-85.7059
778.9	-85.706
779	-85.706
779.1	-85.706
779.2	-85.7061
779.3	-85.7061
779.4	-85.7062
779.5	-85.7062
779.6	-85.7062
779.7	-85.7063
779.8	-85.7063
779.9	-85.7064
780	-85.7064
780.1	-85.7065
780.2	-85.7065
780.3	-85.7065
780.4	-85.7066
780.5	-85.7066
780.6	-85.7067
780.7	-85.7067
780.8	-85.7067
780.9	-85.7068
781	-85.7068
781.1	-85.7069
781.2	-85.7069
781.3	-85.707
781.4	-85.707
781.5	-85.707
781.6	-85.7071
781.7	-85.7071
781.8	-85.7072
781.9	-85.7072
782	-85.7072
782.1	-85.7073
782.2	-85.7073
782.3	-85.7074
782.4	-85.7074
782.5	-85.7074
782.6	-85.7075
782.7	-85.7075
782.8	-85.7076
782.9	-85.7076
783	-85.7077
783.1	-85.7077
783.2	-85.7077
783.3	-85.7078
783.4	-85.7078
783.5	-85.7079
783.6	-85.7079
783.7	-85.7079
783.8	-85.708
783.9	-85.708
784	-85.7081
784.1	-85.7081
784.2	-85.7081
784.3	-85.7082
784.4	-85.7082
784.5	-85.7083
784.6	-85.7083
784.7	-85.7083
784.8	-85.7084
784.9	-85.7084
785	-85.7085
785.1	-85.7085
785.2	-85.7085
785.3	-85.7086
785.4	-85.7086
785.5	-85.7087
785.6	-85.7087
785.7	-85.7088
785.8	-85.7088
785.9	-85.7088
786	-85.7089
786.1	-85.7089
786.2	-85.709
786.3	-85.709
786.4	-85.709
786.5	-85.7091
786.6	-85.7091
786.7	-85.7092
786.8	-85.7092
786.9	-85.7092
787	-85.7093
787.1	-85.7093
787.2	-85.7094
787.3	-85.7094
787.4	-85.7094
787.5	-85.7095
787.6	-85.7095
787.7	-85.7096
787.8	-85.7096
787.9	-85.7096
788	-85.7097
788.1	-85.7097
788.2	-85.7098
788.3	-85.7098
788.4	-85.7098
788.5	-85.7099
788.6	-85.7099
788.7	-85.71
788.8	-85.71
788.9	-85.71
789	-85.7101
789.1	-85.7101
789.2	-85.7102
789.3	-85.7102
789.4	-85.7102
789.5	-85.7103
789.6	-85.7103
789.7	-85.7104
789.8	-85.7104
789.9	-85.7104
790	-85.7105
790.1	-85.7105
790.2	-85.7106
790.3	-85.7106
790.4	-85.7106
790.5	-85.7107
790.6	-85.7107
790.7	-85.7108
790.8	-85.7108
790.9	-85.7108
791	-85.7109
791.1	-85.7109
791.2	-85.711
791.3	-85.711
791.4	-85.711
791.5	-85.7111
791.6	-85.7111
791.7	-85.7112
791.8	-85.7112
791.9	-85.7112
792	-85.7113
792.1	-85.7113
792.2	-85.7114
792.3	-85.7114
792.4	-85.7114
792.5	-85.7115
792.6	-85.7115
792.7	-85.7115
792.8	-85.7116
792.9	-85.7116
793	-85.7117
793.1	-85.7117
793.2	-85.7117
793.3	-85.7118
793.4	-85.7118
793.5	-85.7119
793.6	-85.7119
793.7	-85.7119
793.8	-85.712
793.9	-85.712
794	-85.7121
794.1	-85.7121
794.2	-85.7121
794.3	-85.7122
794.4	-85.7122
794.5	-85.7123
794.6	-85.7123
794.7	-85.7123
794.8	-85.7124
794.9	-85.7124
795	-85.7124
795.1	-85.7125
795.2	-85.7125
795.3	-85.7126
795.4	-85.7126
795.5	-85.7126
795.6	-85.7127
795.7	-85.7127
795.8	-85.7128
795.9	-85.7128
796	-85.7128
796.1	-85.7129
796.2	-85.7129
796.3	-85.713
796.4	-85.713
796.5	-85.713
796.6	-85.7131
796.7	-85.7131
796.8	-85.7131
796.9	-85.7132
797	-85.7132
797.1	-85.7133
797.2	-85.7133
797.3	-85.7133
797.4	-85.7134
797.5	-85.7134
797.6	-85.7135
797.7	-85.7135
797.8	-85.7135
797.9	-85.7136
798	-85.7136
798.1	-85.7136
798.2	-85.7137
798.3	-85.7137
798.4	-85.7138
798.5	-85.7138
798.6	-85.7138
798.7	-85.7139
798.8	-85.7139
798.9	-85.714
799	-85.714
799.1	-85.714
799.2	-85.7141
799.3	-85.7141
799.4	-85.7141
799.5	-85.7142
799.6	-85.7142
799.7	-85.7143
799.8	-85.7143
799.9	-85.7143
800	-85.7144
800.1	-85.7144
800.2	-85.7144
800.3	-85.7145
800.4	-85.7145
800.5	-85.7146
800.6	-85.7146
800.7	-85.7146
800.8	-85.7147
800.9	-85.7147
801	-85.7148
801.1	-85.7148
801.2	-85.7148
801.3	-85.7149
801.4	-85.7149
801.5	-85.7149
801.6	-85.715
801.7	-85.715
801.8	-85.7151
801.9	-85.7151
802	-85.7151
802.1	-85.7152
802.2	-85.7152
802.3	-85.7152
802.4	-85.7153
802.5	-85.7153
802.6	-85.7154
802.7	-85.7154
802.8	-85.7154
802.9	-85.7155
803	-85.7155
803.1	-85.7155
803.2	-85.7156
803.3	-85.7156
803.4	-85.7157
803.5	-85.7157
803.6	-85.7157
803.7	-85.7158
803.8	-85.7158
803.9	-85.7158
804	-85.7159
804.1	-85.7159
804.2	-85.716
804.3	-85.716
804.4	-85.716
804.5	-85.7161
804.6	-85.7161
804.7	-85.7161
804.8	-85.7162
804.9	-85.7162
805	-85.7163
805.1	-85.7163
805.2	-85.7163
805.3	-85.7164
805.4	-85.7164
805.5	-85.7164
805.6	-85.7165
805.7	-85.7165
805.8	-85.7166
805.9	-85.7166
806	-85.7166
806.1	-85.7167
806.2	-85.7167
806.3	-85.7167
806.4	-85.7168
806.5	-85.7168
806.6	-85.7169
806.7	-85.7169
806.8	-85.7169
806.9	-85.717
807	-85.717
807.1	-85.717
807.2	-85.7171
807.3	-85.7171
807.4	-85.7171
807.5	-85.7172
807.6	-85.7172
807.7	-85.7173
807.8	-85.7173
807.9	-85.7173
808	-85.7174
808.1	-85.7174
808.2	-85.7174
808.3	-85.7175
808.4	-85.7175
808.5	-85.7176
808.6	-85.7176
808.7	-85.7176
808.8	-85.7177
808.9	-85.7177
809	-85.7177
809.1	-85.7178
809.2	-85.7178
809.3	-85.7178
809.4	-85.7179
809.5	-85.7179
809.6	-85.718
809.7	-85.718
809.8	-85.718
809.9	-85.7181
810	-85.7181
810.1	-85.7181
810.2	-85.7182
810.3	-85.7182
810.4	-85.7182
810.5	-85.7183
810.6	-85.7183
810.7	-85.7184
810.8	-85.7184
810.9	-85.7184
811	-85.7185
811.1	-85.7185
811.2	-85.7185
811.3	-85.7186
811.4	-85.7186
811.5	-85.7186
811.6	-85.7187
811.7	-85.7187
811.8	-85.7188
811.9	-85.7188
812	-85.7188
812.1	-85.7189
812.2	-85.7189
812.3	-85.7189
812.4	-85.719
812.5	-85.719
812.6	-85.719
812.7	-85.7191
812.8	-85.7191
812.9	-85.7192
813	-85.7192
813.1	-85.7192
813.2	-85.7193
813.3	-85.7193
813.4	-85.7193
813.5	-85.7194
813.6	-85.7194
813.7	-85.7194
813.8	-85.7195
813.9	-85.7195
814	-85.7196
814.1	-85.7196
814.2	-85.7196
814.3	-85.7197
814.4	-85.7197
814.5	-85.7197
814.6	-85.7198
814.7	-85.7198
814.8	-85.7198
814.9	-85.7199
815	-85.7199
815.1	-85.7199
815.2	-85.72
815.3	-85.72
815.4	-85.7201
815.5	-85.7201
815.6	-85.7201
815.7	-85.7202
815.8	-85.7202
815.9	-85.7202
816	-85.7203
816.1	-85.7203
816.2	-85.7203
816.3	-85.7204
816.4	-85.7204
816.5	-85.7204
816.6	-85.7205
816.7	-85.7205
816.8	-85.7205
816.9	-85.7206
817	-85.7206
817.1	-85.7207
817.2	-85.7207
817.3	-85.7207
817.4	-85.7208
817.5	-85.7208
817.6	-85.7208
817.7	-85.7209
817.8	-85.7209
817.9	-85.7209
818	-85.721
818.1	-85.721
818.2	-85.721
818.3	-85.7211
818.4	-85.7211
818.5	-85.7212
818.6	-85.7212
818.7	-85.7212
818.8	-85.7213
818.9	-85.7213
819	-85.7213
819.1	-85.7214
819.2	-85.7214
819.3	-85.7214
819.4	-85.7215
819.5	-85.7215
819.6	-85.7215
819.7	-85.7216
819.8	-85.7216
819.9	-85.7216
820	-85.7217
820.1	-85.7217
820.2	-85.7217
820.3	-85.7218
820.4	-85.7218
820.5	-85.7219
820.6	-85.7219
820.7	-85.7219
820.8	-85.722
820.9	-85.722
821	-85.722
821.1	-85.7221
821.2	-85.7221
821.3	-85.7221
821.4	-85.7222
821.5	-85.7222
821.6	-85.7222
821.7	-85.7223
821.8	-85.7223
821.9	-85.7223
822	-85.7224
822.1	-85.7224
822.2	-85.7224
822.3	-85.7225
822.4	-85.7225
822.5	-85.7225
822.6	-85.7226
822.7	-85.7226
822.8	-85.7226
822.9	-85.7227
823	-85.7227
823.1	-85.7228
823.2	-85.7228
823.3	-85.7228
823.4	-85.7229
823.5	-85.7229
823.6	-85.7229
823.7	-85.723
823.8	-85.723
823.9	-85.723
824	-85.7231
824.1	-85.7231
824.2	-85.7231
824.3	-85.7232
824.4	-85.7232
824.5	-85.7232
824.6	-85.7233
824.7	-85.7233
824.8	-85.7233
824.9	-85.7234
825	-85.7234
825.1	-85.7234
825.2	-85.7235
825.3	-85.7235
825.4	-85.7235
825.5	-85.7236
825.6	-85.7236
825.7	-85.7236
825.8	-85.7237
825.9	-85.7237
826	-85.7237
826.1	-85.7238
826.2	-85.7238
826.3	-85.7239
826.4	-85.7239
826.5	-85.7239
826.6	-85.724
826.7	-85.724
826.8	-85.724
826.9	-85.7241
827	-85.7241
827.1	-85.7241
827.2	-85.7242
827.3	-85.7242
827.4	-85.7242
827.5	-85.7243
827.6	-85.7243
827.7	-85.7243
827.8	-85.7244
827.9	-85.7244
828	-85.7244
828.1	-85.7245
828.2	-85.7245
828.3	-85.7245
828.4	-85.7246
828.5	-85.7246
828.6	-85.7246
828.7	-85.7247
828.8	-85.7247
828.9	-85.7247
829	-85.7248
829.1	-85.7248
829.2	-85.7248
829.3	-85.7249
829.4	-85.7249
829.5	-85.7249
829.6	-85.725
829.7	-85.725
829.8	-85.725
829.9	-85.7251
830	-85.7251
830.1	-85.7251
830.2	-85.7252
830.3	-85.7252
830.4	-85.7252
830.5	-85.7253
830.6	-85.7253
830.7	-85.7253
830.8	-85.7254
830.9	-85.7254
831	-85.7254
831.1	-85.7255
831.2	-85.7255
831.3	-85.7255
831.4	-85.7256
831.5	-85.7256
831.6	-85.7256
831.7	-85.7257
831.8	-85.7257
831.9	-85.7257
832	-85.7258
832.1	-85.7258
832.2	-85.7258
832.3	-85.7259
832.4	-85.7259
832.5	-85.7259
832.6	-85.726
832.7	-85.726
832.8	-85.726
832.9	-85.7261
833	-85.7261
833.1	-85.7261
833.2	-85.7262
833.3	-85.7262
833.4	-85.7262
833.5	-85.7263
833.6	-85.7263
833.7	-85.7263
833.8	-85.7264
833.9	-85.7264
834	-85.7264
834.1	-85.7265
834.2	-85.7265
834.3	-85.7265
834.4	-85.7266
834.5	-85.7266
834.6	-85.7266
834.7	-85.7267
834.8	-85.7267
834.9	-85.7267
835	-85.7268
835.1	-85.7268
835.2	-85.7268
835.3	-85.7269
835.4	-85.7269
835.5	-85.7269
835.6	-85.727
835.7	-85.727
835.8	-85.727
835.9	-85.7271
836	-85.7271
836.1	-85.7271
836.2	-85.7271
836.3	-85.7272
836.4	-85.7272
836.5	-85.7272
836.6	-85.7273
836.7	-85.7273
836.8	-85.7273
836.9	-85.7274
837	-85.7274
837.1	-85.7274
837.2	-85.7275
837.3	-85.7275
837.4	-85.7275
837.5	-85.7276
837.6	-85.7276
837.7	-85.7276
837.8	-85.7277
837.9	-85.7277
838	-85.7277
838.1	-85.7278
838.2	-85.7278
838.3	-85.7278
838.4	-85.7279
838.5	-85.7279
838.6	-85.7279
838.7	-85.728
838.8	-85.728
838.9	-85.728
839	-85.7281
839.1	-85.7281
839.2	-85.7281
839.3	-85.7282
839.4	-85.7282
839.5	-85.7282
839.6	-85.7283
839.7	-85.7283
839.8	-85.7283
839.9	-85.7283
840	-85.7284
840.1	-85.7284
840.2	-85.7284
840.3	-85.7285
840.4	-85.7285
840.5	-85.7285
840.6	-85.7286
840.7	-85.7286
840.8	-85.7286
840.9	-85.7287
841	-85.7287
841.1	-85.7287
841.2	-85.7288
841.3	-85.7288
841.4	-85.7288
841.5	-85.7289
841.6	-85.7289
841.7	-85.7289
841.8	-85.729
841.9	-85.729
842	-85.729
842.1	-85.729
842.2	-85.7291
842.3	-85.7291
842.4	-85.7291
842.5	-85.7292
842.6	-85.7292
842.7	-85.7292
842.8	-85.7293
842.9	-85.7293
843	-85.7293
843.1	-85.7294
843.2	-85.7294
843.3	-85.7294
843.4	-85.7295
843.5	-85.7295
843.6	-85.7295
843.7	-85.7296
843.8	-85.7296
843.9	-85.7296
844	-85.7297
844.1	-85.7297
844.2	-85.7297
844.3	-85.7297
844.4	-85.7298
844.5	-85.7298
844.6	-85.7298
844.7	-85.7299
844.8	-85.7299
844.9	-85.7299
845	-85.73
845.1	-85.73
845.2	-85.73
845.3	-85.7301
845.4	-85.7301
845.5	-85.7301
845.6	-85.7302
845.7	-85.7302
845.8	-85.7302
845.9	-85.7302
846	-85.7303
846.1	-85.7303
846.2	-85.7303
846.3	-85.7304
846.4	-85.7304
846.5	-85.7304
846.6	-85.7305
846.7	-85.7305
846.8	-85.7305
846.9	-85.7306
847	-85.7306
847.1	-85.7306
847.2	-85.7307
847.3	-85.7307
847.4	-85.7307
847.5	-85.7307
847.6	-85.7308
847.7	-85.7308
847.8	-85.7308
847.9	-85.7309
848	-85.7309
848.1	-85.7309
848.2	-85.731
848.3	-85.731
848.4	-85.731
848.5	-85.7311
848.6	-85.7311
848.7	-85.7311
848.8	-85.7312
848.9	-85.7312
849	-85.7312
849.1	-85.7312
849.2	-85.7313
849.3	-85.7313
849.4	-85.7313
849.5	-85.7314
849.6	-85.7314
849.7	-85.7314
849.8	-85.7315
849.9	-85.7315
850	-85.7315
850.1	-85.7316
850.2	-85.7316
850.3	-85.7316
850.4	-85.7316
850.5	-85.7317
850.6	-85.7317
850.7	-85.7317
850.8	-85.7318
850.9	-85.7318
851	-85.7318
851.1	-85.7319
851.2	-85.7319
851.3	-85.7319
851.4	-85.732
851.5	-85.732
851.6	-85.732
851.7	-85.732
851.8	-85.7321
851.9	-85.7321
852	-85.7321
852.1	-85.7322
852.2	-85.7322
852.3	-85.7322
852.4	-85.7323
852.5	-85.7323
852.6	-85.7323
852.7	-85.7323
852.8	-85.7324
852.9	-85.7324
853	-85.7324
853.1	-85.7325
853.2	-85.7325
853.3	-85.7325
853.4	-85.7326
853.5	-85.7326
853.6	-85.7326
853.7	-85.7326
853.8	-85.7327
853.9	-85.7327
854	-85.7327
854.1	-85.7328
854.2	-85.7328
854.3	-85.7328
854.4	-85.7329
854.5	-85.7329
854.6	-85.7329
854.7	-85.733
854.8	-85.733
854.9	-85.733
855	-85.733
855.1	-85.7331
855.2	-85.7331
855.3	-85.7331
855.4	-85.7332
855.5	-85.7332
855.6	-85.7332
855.7	-85.7333
855.8	-85.7333
855.9	-85.7333
856	-85.7333
856.1	-85.7334
856.2	-85.7334
856.3	-85.7334
856.4	-85.7335
856.5	-85.7335
856.6	-85.7335
856.7	-85.7336
856.8	-85.7336
856.9	-85.7336
857	-85.7336
857.1	-85.7337
857.2	-85.7337
857.3	-85.7337
857.4	-85.7338
857.5	-85.7338
857.6	-85.7338
857.7	-85.7339
857.8	-85.7339
857.9	-85.7339
858	-85.7339
858.1	-85.734
858.2	-85.734
858.3	-85.734
858.4	-85.7341
858.5	-85.7341
858.6	-85.7341
858.7	-85.7341
858.8	-85.7342
858.9	-85.7342
859	-85.7342
859.1	-85.7343
859.2	-85.7343
859.3	-85.7343
859.4	-85.7344
859.5	-85.7344
859.6	-85.7344
859.7	-85.7344
859.8	-85.7345
859.9	-85.7345
860	-85.7345
860.1	-85.7346
860.2	-85.7346
860.3	-85.7346
860.4	-85.7346
860.5	-85.7347
860.6	-85.7347
860.7	-85.7347
860.8	-85.7348
860.9	-85.7348
861	-85.7348
861.1	-85.7349
861.2	-85.7349
861.3	-85.7349
861.4	-85.7349
861.5	-85.735
861.6	-85.735
861.7	-85.735
861.8	-85.7351
861.9	-85.7351
862	-85.7351
862.1	-85.7351
862.2	-85.7352
862.3	-85.7352
862.4	-85.7352
862.5	-85.7353
862.6	-85.7353
862.7	-85.7353
862.8	-85.7354
862.9	-85.7354
863	-85.7354
863.1	-85.7354
863.2	-85.7355
863.3	-85.7355
863.4	-85.7355
863.5	-85.7356
863.6	-85.7356
863.7	-85.7356
863.8	-85.7356
863.9	-85.7357
864	-85.7357
864.1	-85.7357
864.2	-85.7358
864.3	-85.7358
864.4	-85.7358
864.5	-85.7358
864.6	-85.7359
864.7	-85.7359
864.8	-85.7359
864.9	-85.736
865	-85.736
865.1	-85.736
865.2	-85.736
865.3	-85.7361
865.4	-85.7361
865.5	-85.7361
865.6	-85.7362
865.7	-85.7362
865.8	-85.7362
865.9	-85.7362
866	-85.7363
866.1	-85.7363
866.2	-85.7363
866.3	-85.7364
866.4	-85.7364
866.5	-85.7364
866.6	-85.7364
866.7	-85.7365
866.8	-85.7365
866.9	-85.7365
867	-85.7366
867.1	-85.7366
867.2	-85.7366
867.3	-85.7366
867.4	-85.7367
867.5	-85.7367
867.6	-85.7367
867.7	-85.7368
867.8	-85.7368
867.9	-85.7368
868	-85.7368
868.1	-85.7369
868.2	-85.7369
868.3	-85.7369
868.4	-85.737
868.5	-85.737
868.6	-85.737
868.7	-85.737
868.8	-85.7371
868.9	-85.7371
869	-85.7371
869.1	-85.7372
869.2	-85.7372
869.3	-85.7372
869.4	-85.7372
869.5	-85.7373
869.6	-85.7373
869.7	-85.7373
869.8	-85.7374
869.9	-85.7374
870	-85.7374
870.1	-85.7374
870.2	-85.7375
870.3	-85.7375
870.4	-85.7375
870.5	-85.7376
870.6	-85.7376
870.7	-85.7376
870.8	-85.7376
870.9	-85.7377
871	-85.7377
871.1	-85.7377
871.2	-85.7378
871.3	-85.7378
871.4	-85.7378
871.5	-85.7378
871.6	-85.7379
871.7	-85.7379
871.8	-85.7379
871.9	-85.738
872	-85.738
872.1	-85.738
872.2	-85.738
872.3	-85.7381
872.4	-85.7381
872.5	-85.7381
872.6	-85.7381
872.7	-85.7382
872.8	-85.7382
872.9	-85.7382
873	-85.7383
873.1	-85.7383
873.2	-85.7383
873.3	-85.7383
873.4	-85.7384
873.5	-85.7384
873.6	-85.7384
873.7	-85.7385
873.8	-85.7385
873.9	-85.7385
874	-85.7385
874.1	-85.7386
874.2	-85.7386
874.3	-85.7386
874.4	-85.7386
874.5	-85.7387
874.6	-85.7387
874.7	-85.7387
874.8	-85.7388
874.9	-85.7388
875	-85.7388
875.1	-85.7388
875.2	-85.7389
875.3	-85.7389
875.4	-85.7389
875.5	-85.739
875.6	-85.739
875.7	-85.739
875.8	-85.739
875.9	-85.7391
876	-85.7391
876.1	-85.7391
876.2	-85.7391
876.3	-85.7392
876.4	-85.7392
876.5	-85.7392
876.6	-85.7393
876.7	-85.7393
876.8	-85.7393
876.9	-85.7393
877	-85.7394
877.1	-85.7394
877.2	-85.7394
877.3	-85.7394
877.4	-85.7395
877.5	-85.7395
877.6	-85.7395
877.7	-85.7396
877.8	-85.7396
877.9	-85.7396
878	-85.7396
878.1	-85.7397
878.2	-85.7397
878.3	-85.7397
878.4	-85.7397
878.5	-85.7398
878.6	-85.7398
878.7	-85.7398
878.8	-85.7399
878.9	-85.7399
879	-85.7399
879.1	-85.7399
879.2	-85.74
879.3	-85.74
879.4	-85.74
879.5	-85.74
879.6	-85.7401
879.7	-85.7401
879.8	-85.7401
879.9	-85.7402
880	-85.7402
880.1	-85.7402
880.2	-85.7402
880.3	-85.7403
880.4	-85.7403
880.5	-85.7403
880.6	-85.7403
880.7	-85.7404
880.8	-85.7404
880.9	-85.7404
881	-85.7405
881.1	-85.7405
881.2	-85.7405
881.3	-85.7405
881.4	-85.7406
881.5	-85.7406
881.6	-85.7406
881.7	-85.7406
881.8	-85.7407
881.9	-85.7407
882	-85.7407
882.1	-85.7407
882.2	-85.7408
882.3	-85.7408
882.4	-85.7408
882.5	-85.7409
882.6	-85.7409
882.7	-85.7409
882.8	-85.7409
882.9	-85.741
883	-85.741
883.1	-85.741
883.2	-85.741
883.3	-85.7411
883.4	-85.7411
883.5	-85.7411
883.6	-85.7411
883.7	-85.7412
883.8	-85.7412
883.9	-85.7412
884	-85.7413
884.1	-85.7413
884.2	-85.7413
884.3	-85.7413
884.4	-85.7414
884.5	-85.7414
884.6	-85.7414
884.7	-85.7414
884.8	-85.7415
884.9	-85.7415
885	-85.7415
885.1	-85.7415
885.2	-85.7416
885.3	-85.7416
885.4	-85.7416
885.5	-85.7417
885.6	-85.7417
885.7	-85.7417
885.8	-85.7417
885.9	-85.7418
886	-85.7418
886.1	-85.7418
886.2	-85.7418
886.3	-85.7419
886.4	-85.7419
886.5	-85.7419
886.6	-85.7419
886.7	-85.742
886.8	-85.742
886.9	-85.742
887	-85.742
887.1	-85.7421
887.2	-85.7421
887.3	-85.7421
887.4	-85.7422
887.5	-85.7422
887.6	-85.7422
887.7	-85.7422
887.8	-85.7423
887.9	-85.7423
888	-85.7423
888.1	-85.7423
888.2	-85.7424
888.3	-85.7424
888.4	-85.7424
888.5	-85.7424
888.6	-85.7425
888.7	-85.7425
888.8	-85.7425
888.9	-85.7425
889	-85.7426
889.1	-85.7426
889.2	-85.7426
889.3	-85.7426
889.4	-85.7427
889.5	-85.7427
889.6	-85.7427
889.7	-85.7428
889.8	-85.7428
889.9	-85.7428
890	-85.7428
890.1	-85.7429
890.2	-85.7429
890.3	-85.7429
890.4	-85.7429
890.5	-85.743
890.6	-85.743
890.7	-85.743
890.8	-85.743
890.9	-85.7431
891	-85.7431
891.1	-85.7431
891.2	-85.7431
891.3	-85.7432
891.4	-85.7432
891.5	-85.7432
891.6	-85.7432
891.7	-85.7433
891.8	-85.7433
891.9	-85.7433
892	-85.7433
892.1	-85.7434
892.2	-85.7434
892.3	-85.7434
892.4	-85.7434
892.5	-85.7435
892.6	-85.7435
892.7	-85.7435
892.8	-85.7436
892.9	-85.7436
893	-85.7436
893.1	-85.7436
893.2	-85.7437
893.3	-85.7437
893.4	-85.7437
893.5	-85.7437
893.6	-85.7438
893.7	-85.7438
893.8	-85.7438
893.9	-85.7438
894	-85.7439
894.1	-85.7439
894.2	-85.7439
894.3	-85.7439
894.4	-85.744
894.5	-85.744
894.6	-85.744
894.7	-85.744
894.8	-85.7441
894.9	-85.7441
895	-85.7441
895.1	-85.7441
895.2	-85.7442
895.3	-85.7442
895.4	-85.7442
895.5	-85.7442
895.6	-85.7443
895.7	-85.7443
895.8	-85.7443
895.9	-85.7443
896	-85.7444
896.1	-85.7444
896.2	-85.7444
896.3	-85.7444
896.4	-85.7445
896.5	-85.7445
896.6	-85.7445
896.7	-85.7445
896.8	-85.7446
896.9	-85.7446
897	-85.7446
897.1	-85.7446
897.2	-85.7447
897.3	-85.7447
897.4	-85.7447
897.5	-85.7447
897.6	-85.7448
897.7	-85.7448
897.8	-85.7448
897.9	-85.7448
898	-85.7449
898.1	-85.7449
898.2	-85.7449
898.3	-85.7449
898.4	-85.745
898.5	-85.745
898.6	-85.745
898.7	-85.745
898.8	-85.7451
898.9	-85.7451
899	-85.7451
899.1	-85.7451
899.2	-85.7452
899.3	-85.7452
899.4	-85.7452
899.5	-85.7452
899.6	-85.7453
899.7	-85.7453
899.8	-85.7453
899.9	-85.7453
900	-85.7454
900.1	-85.7454
900.2	-85.7454
900.3	-85.7454
900.4	-85.7455
900.5	-85.7455
900.6	-85.7455
900.7	-85.7455
900.8	-85.7456
900.9	-85.7456
901	-85.7456
901.1	-85.7456
901.2	-85.7457
901.3	-85.7457
901.4	-85.7457
901.5	-85.7457
901.6	-85.7458
901.7	-85.7458
901.8	-85.7458
901.9	-85.7458
902	-85.7459
902.1	-85.7459
902.2	-85.7459
902.3	-85.7459
902.4	-85.746
902.5	-85.746
902.6	-85.746
902.7	-85.746
902.8	-85.7461
902.9	-85.7461
903	-85.7461
903.1	-85.7461
903.2	-85.7462
903.3	-85.7462
903.4	-85.7462
903.5	-85.7462
903.6	-85.7463
903.7	-85.7463
903.8	-85.7463
903.9	-85.7463
904	-85.7464
904.1	-85.7464
904.2	-85.7464
904.3	-85.7464
904.4	-85.7465
904.5	-85.7465
904.6	-85.7465
904.7	-85.7465
904.8	-85.7466
904.9	-85.7466
905	-85.7466
905.1	-85.7466
905.2	-85.7466
905.3	-85.7467
905.4	-85.7467
905.5	-85.7467
905.6	-85.7467
905.7	-85.7468
905.8	-85.7468
905.9	-85.7468
906	-85.7468
906.1	-85.7469
906.2	-85.7469
906.3	-85.7469
906.4	-85.7469
906.5	-85.747
906.6	-85.747
906.7	-85.747
906.8	-85.747
906.9	-85.7471
907	-85.7471
907.1	-85.7471
907.2	-85.7471
907.3	-85.7472
907.4	-85.7472
907.5	-85.7472
907.6	-85.7472
907.7	-85.7473
907.8	-85.7473
907.9	-85.7473
908	-85.7473
908.1	-85.7473
908.2	-85.7474
908.3	-85.7474
908.4	-85.7474
908.5	-85.7474
908.6	-85.7475
908.7	-85.7475
908.8	-85.7475
908.9	-85.7475
909	-85.7476
909.1	-85.7476
909.2	-85.7476
909.3	-85.7476
909.4	-85.7477
909.5	-85.7477
909.6	-85.7477
909.7	-85.7477
909.8	-85.7478
909.9	-85.7478
910	-85.7478
910.1	-85.7478
910.2	-85.7479
910.3	-85.7479
910.4	-85.7479
910.5	-85.7479
910.6	-85.7479
910.7	-85.748
910.8	-85.748
910.9	-85.748
911	-85.748
911.1	-85.7481
911.2	-85.7481
911.3	-85.7481
911.4	-85.7481
911.5	-85.7482
911.6	-85.7482
911.7	-85.7482
911.8	-85.7482
911.9	-85.7483
912	-85.7483
912.1	-85.7483
912.2	-85.7483
912.3	-85.7483
912.4	-85.7484
912.5	-85.7484
912.6	-85.7484
912.7	-85.7484
912.8	-85.7485
912.9	-85.7485
913	-85.7485
913.1	-85.7485
913.2	-85.7486
913.3	-85.7486
913.4	-85.7486
913.5	-85.7486
913.6	-85.7487
913.7	-85.7487
913.8	-85.7487
913.9	-85.7487
914	-85.7487
914.1	-85.7488
914.2	-85.7488
914.3	-85.7488
914.4	-85.7488
914.5	-85.7489
914.6	-85.7489
914.7	-85.7489
914.8	-85.7489
914.9	-85.749
915	-85.749
915.1	-85.749
915.2	-85.749
915.3	-85.7491
915.4	-85.7491
915.5	-85.7491
915.6	-85.7491
915.7	-85.7491
915.8	-85.7492
915.9	-85.7492
916	-85.7492
916.1	-85.7492
916.2	-85.7493
916.3	-85.7493
916.4	-85.7493
916.5	-85.7493
916.6	-85.7494
916.7	-85.7494
916.8	-85.7494
916.9	-85.7494
917	-85.7494
917.1	-85.7495
917.2	-85.7495
917.3	-85.7495
917.4	-85.7495
917.5	-85.7496
917.6	-85.7496
917.7	-85.7496
917.8	-85.7496
917.9	-85.7497
918	-85.7497
918.1	-85.7497
918.2	-85.7497
918.3	-85.7497
918.4	-85.7498
918.5	-85.7498
918.6	-85.7498
918.7	-85.7498
918.8	-85.7499
918.9	-85.7499
919	-85.7499
919.1	-85.7499
919.2	-85.75
919.3	-85.75
919.4	-85.75
919.5	-85.75
919.6	-85.75
919.7	-85.7501
919.8	-85.7501
919.9	-85.7501
920	-85.7501
920.1	-85.7502
920.2	-85.7502
920.3	-85.7502
920.4	-85.7502
920.5	-85.7502
920.6	-85.7503
920.7	-85.7503
920.8	-85.7503
920.9	-85.7503
921	-85.7504
921.1	-85.7504
921.2	-85.7504
921.3	-85.7504
921.4	-85.7505
921.5	-85.7505
921.6	-85.7505
921.7	-85.7505
921.8	-85.7505
921.9	-85.7506
922	-85.7506
922.1	-85.7506
922.2	-85.7506
922.3	-85.7507
922.4	-85.7507
922.5	-85.7507
922.6	-85.7507
922.7	-85.7507
922.8	-85.7508
922.9	-85.7508
923	-85.7508
923.1	-85.7508
923.2	-85.7509
923.3	-85.7509
923.4	-85.7509
923.5	-85.7509
923.6	-85.751
923.7	-85.751
923.8	-85.751
923.9	-85.751
924	-85.751
924.1	-85.7511
924.2	-85.7511
924.3	-85.7511
924.4	-85.7511
924.5	-85.7512
924.6	-85.7512
924.7	-85.7512
924.8	-85.7512
924.9	-85.7512
925	-85.7513
925.1	-85.7513
925.2	-85.7513
925.3	-85.7513
925.4	-85.7514
925.5	-85.7514
925.6	-85.7514
925.7	-85.7514
925.8	-85.7514
925.9	-85.7515
926	-85.7515
926.1	-85.7515
926.2	-85.7515
926.3	-85.7516
926.4	-85.7516
926.5	-85.7516
926.6	-85.7516
926.7	-85.7516
926.8	-85.7517
926.9	-85.7517
927	-85.7517
927.1	-85.7517
927.2	-85.7518
927.3	-85.7518
927.4	-85.7518
927.5	-85.7518
927.6	-85.7518
927.7	-85.7519
927.8	-85.7519
927.9	-85.7519
928	-85.7519
928.1	-85.752
928.2	-85.752
928.3	-85.752
928.4	-85.752
928.5	-85.752
928.6	-85.7521
928.7	-85.7521
928.8	-85.7521
928.9	-85.7521
929	-85.7522
929.1	-85.7522
929.2	-85.7522
929.3	-85.7522
929.4	-85.7522
929.5	-85.7523
929.6	-85.7523
929.7	-85.7523
929.8	-85.7523
929.9	-85.7523
930	-85.7524
930.1	-85.7524
930.2	-85.7524
930.3	-85.7524
930.4	-85.7525
930.5	-85.7525
930.6	-85.7525
930.7	-85.7525
930.8	-85.7525
930.9	-85.7526
931	-85.7526
931.1	-85.7526
931.2	-85.7526
931.3	-85.7527
931.4	-85.7527
931.5	-85.7527
931.6	-85.7527
931.7	-85.7527
931.8	-85.7528
931.9	-85.7528
932	-85.7528
932.1	-85.7528
932.2	-85.7529
932.3	-85.7529
932.4	-85.7529
932.5	-85.7529
932.6	-85.7529
932.7	-85.753
932.8	-85.753
932.9	-85.753
933	-85.753
933.1	-85.753
933.2	-85.7531
933.3	-85.7531
933.4	-85.7531
933.5	-85.7531
933.6	-85.7532
933.7	-85.7532
933.8	-85.7532
933.9	-85.7532
934	-85.7532
934.1	-85.7533
934.2	-85.7533
934.3	-85.7533
934.4	-85.7533
934.5	-85.7533
934.6	-85.7534
934.7	-85.7534
934.8	-85.7534
934.9	-85.7534
935	-85.7535
935.1	-85.7535
935.2	-85.7535
935.3	-85.7535
935.4	-85.7535
935.5	-85.7536
935.6	-85.7536
935.7	-85.7536
935.8	-85.7536
935.9	-85.7536
936	-85.7537
936.1	-85.7537
936.2	-85.7537
936.3	-85.7537
936.4	-85.7538
936.5	-85.7538
936.6	-85.7538
936.7	-85.7538
936.8	-85.7538
936.9	-85.7539
937	-85.7539
937.1	-85.7539
937.2	-85.7539
937.3	-85.7539
937.4	-85.754
937.5	-85.754
937.6	-85.754
937.7	-85.754
937.8	-85.7541
937.9	-85.7541
938	-85.7541
938.1	-85.7541
938.2	-85.7541
938.3	-85.7542
938.4	-85.7542
938.5	-85.7542
938.6	-85.7542
938.7	-85.7542
938.8	-85.7543
938.9	-85.7543
939	-85.7543
939.1	-85.7543
939.2	-85.7543
939.3	-85.7544
939.4	-85.7544
939.5	-85.7544
939.6	-85.7544
939.7	-85.7545
939.8	-85.7545
939.9	-85.7545
940	-85.7545
940.1	-85.7545
940.2	-85.7546
940.3	-85.7546
940.4	-85.7546
940.5	-85.7546
940.6	-85.7546
940.7	-85.7547
940.8	-85.7547
940.9	-85.7547
941	-85.7547
941.1	-85.7547
941.2	-85.7548
941.3	-85.7548
941.4	-85.7548
941.5	-85.7548
941.6	-85.7548
941.7	-85.7549
941.8	-85.7549
941.9	-85.7549
942	-85.7549
942.1	-85.755
942.2	-85.755
942.3	-85.755
942.4	-85.755
942.5	-85.755
942.6	-85.7551
942.7	-85.7551
942.8	-85.7551
942.9	-85.7551
943	-85.7551
943.1	-85.7552
943.2	-85.7552
943.3	-85.7552
943.4	-85.7552
943.5	-85.7552
943.6	-85.7553
943.7	-85.7553
943.8	-85.7553
943.9	-85.7553
944	-85.7553
944.1	-85.7554
944.2	-85.7554
944.3	-85.7554
944.4	-85.7554
944.5	-85.7554
944.6	-85.7555
944.7	-85.7555
944.8	-85.7555
944.9	-85.7555
945	-85.7556
945.1	-85.7556
945.2	-85.7556
945.3	-85.7556
945.4	-85.7556
945.5	-85.7557
945.6	-85.7557
945.7	-85.7557
945.8	-85.7557
945.9	-85.7557
946	-85.7558
946.1	-85.7558
946.2	-85.7558
946.3	-85.7558
946.4	-85.7558
946.5	-85.7559
946.6	-85.7559
946.7	-85.7559
946.8	-85.7559
946.9	-85.7559
947	-85.756
947.1	-85.756
947.2	-85.756
947.3	-85.756
947.4	-85.756
947.5	-85.7561
947.6	-85.7561
947.7	-85.7561
947.8	-85.7561
947.9	-85.7561
948	-85.7562
948.1	-85.7562
948.2	-85.7562
948.3	-85.7562
948.4	-85.7562
948.5	-85.7563
948.6	-85.7563
948.7	-85.7563
948.8	-85.7563
948.9	-85.7563
949	-85.7564
949.1	-85.7564
949.2	-85.7564
949.3	-85.7564
949.4	-85.7564
949.5	-85.7565
949.6	-85.7565
949.7	-85.7565
949.8	-85.7565
949.9	-85.7565
950	-85.7566
950.1	-85.7566
950.2	-85.7566
950.3	-85.7566
950.4	-85.7566
950.5	-85.7567
950.6	-85.7567
950.7	-85.7567
950.8	-85.7567
950.9	-85.7567
951	-85.7568
951.1	-85.7568
951.2	-85.7568
951.3	-85.7568
951.4	-85.7568
951.5	-85.7569
951.6	-85.7569
951.7	-85.7569
951.8	-85.7569
951.9	-85.7569
952	-85.757
952.1	-85.757
952.2	-85.757
952.3	-85.757
952.4	-85.757
952.5	-85.7571
952.6	-85.7571
952.7	-85.7571
952.8	-85.7571
952.9	-85.7571
953	-85.7572
953.1	-85.7572
953.2	-85.7572
953.3	-85.7572
953.4	-85.7572
953.5	-85.7573
953.6	-85.7573
953.7	-85.7573
953.8	-85.7573
953.9	-85.7573
954	-85.7574
954.1	-85.7574
954.2	-85.7574
954.3	-85.7574
954.4	-85.7574
954.5	-85.7575
954.6	-85.7575
954.7	-85.7575
954.8	-85.7575
954.9	-85.7575
955	-85.7576
955.1	-85.7576
955.2	-85.7576
955.3	-85.7576
955.4	-85.7576
955.5	-85.7577
955.6	-85.7577
955.7	-85.7577
955.8	-85.7577
955.9	-85.7577
956	-85.7578
956.1	-85.7578
956.2	-85.7578
956.3	-85.7578
956.4	-85.7578
956.5	-85.7579
956.6	-85.7579
956.7	-85.7579
956.8	-85.7579
956.9	-85.7579
957	-85.758
957.1	-85.758
957.2	-85.758
957.3	-85.758
957.4	-85.758
957.5	-85.7581
957.6	-85.7581
957.7	-85.7581
957.8	-85.7581
957.9	-85.7581
958	-85.7581
958.1	-85.7582
958.2	-85.7582
958.3	-85.7582
958.4	-85.7582
958.5	-85.7582
958.6	-85.7583
958.7	-85.7583
958.8	-85.7583
958.9	-85.7583
959	-85.7583
959.1	-85.7584
959.2	-85.7584
959.3	-85.7584
959.4	-85.7584
959.5	-85.7584
959.6	-85.7585
959.7	-85.7585
959.8	-85.7585
959.9	-85.7585
960	-85.7585
960.1	-85.7586
960.2	-85.7586
960.3	-85.7586
960.4	-85.7586
960.5	-85.7586
960.6	-85.7587
960.7	-85.7587
960.8	-85.7587
960.9	-85.7587
961	-85.7587
961.1	-85.7587
961.2	-85.7588
961.3	-85.7588
961.4	-85.7588
961.5	-85.7588
961.6	-85.7588
961.7	-85.7589
961.8	-85.7589
961.9	-85.7589
962	-85.7589
962.1	-85.7589
962.2	-85.759
962.3	-85.759
962.4	-85.759
962.5	-85.759
962.6	-85.759
962.7	-85.7591
962.8	-85.7591
962.9	-85.7591
963	-85.7591
963.1	-85.7591
963.2	-85.7591
963.3	-85.7592
963.4	-85.7592
963.5	-85.7592
963.6	-85.7592
963.7	-85.7592
963.8	-85.7593
963.9	-85.7593
964	-85.7593
964.1	-85.7593
964.2	-85.7593
964.3	-85.7594
964.4	-85.7594
964.5	-85.7594
964.6	-85.7594
964.7	-85.7594
964.8	-85.7595
964.9	-85.7595
965	-85.7595
965.1	-85.7595
965.2	-85.7595
965.3	-85.7595
965.4	-85.7596
965.5	-85.7596
965.6	-85.7596
965.7	-85.7596
965.8	-85.7596
965.9	-85.7597
966	-85.7597
966.1	-85.7597
966.2	-85.7597
966.3	-85.7597
966.4	-85.7598
966.5	-85.7598
966.6	-85.7598
966.7	-85.7598
966.8	-85.7598
966.9	-85.7598
967	-85.7599
967.1	-85.7599
967.2	-85.7599
967.3	-85.7599
967.4	-85.7599
967.5	-85.76
967.6	-85.76
967.7	-85.76
967.8	-85.76
967.9	-85.76
968	-85.7601
968.1	-85.7601
968.2	-85.7601
968.3	-85.7601
968.4	-85.7601
968.5	-85.7601
968.6	-85.7602
968.7	-85.7602
968.8	-85.7602
968.9	-85.7602
969	-85.7602
969.1	-85.7603
969.2	-85.7603
969.3	-85.7603
969.4	-85.7603
969.5	-85.7603
969.6	-85.7603
969.7	-85.7604
969.8	-85.7604
969.9	-85.7604
970	-85.7604
970.1	-85.7604
970.2	-85.7605
970.3	-85.7605
970.4	-85.7605
970.5	-85.7605
970.6	-85.7605
970.7	-85.7606
970.8	-85.7606
970.9	-85.7606
971	-85.7606
971.1	-85.7606
971.2	-85.7606
971.3	-85.7607
971.4	-85.7607
971.5	-85.7607
971.6	-85.7607
971.7	-85.7607
971.8	-85.7608
971.9	-85.7608
972	-85.7608
972.1	-85.7608
972.2	-85.7608
972.3	-85.7608
972.4	-85.7609
972.5	-85.7609
972.6	-85.7609
972.7	-85.7609
972.8	-85.7609
972.9	-85.761
973	-85.761
973.1	-85.761
973.2	-85.761
973.3	-85.761
973.4	-85.761
973.5	-85.7611
973.6	-85.7611
973.7	-85.7611
973.8	-85.7611
973.9	-85.7611
974	-85.7612
974.1	-85.7612
974.2	-85.7612
974.3	-85.7612
974.4	-85.7612
974.5	-85.7612
974.6	-85.7613
974.7	-85.7613
974.8	-85.7613
974.9	-85.7613
975	-85.7613
975.1	-85.7614
975.2	-85.7614
975.3	-85.7614
975.4	-85.7614
975.5	-85.7614
975.6	-85.7614
975.7	-85.7615
975.8	-85.7615
975.9	-85.7615
976	-85.7615
976.1	-85.7615
976.2	-85.7616
976.3	-85.7616
976.4	-85.7616
976.5	-85.7616
976.6	-85.7616
976.7	-85.7616
976.8	-85.7617
976.9	-85.7617
977	-85.7617
977.1	-85.7617
977.2	-85.7617
977.3	-85.7617
977.4	-85.7618
977.5	-85.7618
977.6	-85.7618
977.7	-85.7618
977.8	-85.7618
977.9	-85.7619
978	-85.7619
978.1	-85.7619
978.2	-85.7619
978.3	-85.7619
978.4	-85.7619
978.5	-85.762
978.6	-85.762
978.7	-85.762
978.8	-85.762
978.9	-85.762
979	-85.7621
979.1	-85.7621
979.2	-85.7621
979.3	-85.7621
979.4	-85.7621
979.5	-85.7621
979.6	-85.7622
979.7	-85.7622
979.8	-85.7622
979.9	-85.7622
980	-85.7622
980.1	-85.7622
980.2	-85.7623
980.3	-85.7623
980.4	-85.7623
980.5	-85.7623
980.6	-85.7623
980.7	-85.7624
980.8	-85.7624
980.9	-85.7624
981	-85.7624
981.1	-85.7624
981.2	-85.7624
981.3	-85.7625
981.4	-85.7625
981.5	-85.7625
981.6	-85.7625
981.7	-85.7625
981.8	-85.7625
981.9	-85.7626
982	-85.7626
982.1	-85.7626
982.2	-85.7626
982.3	-85.7626
982.4	-85.7627
982.5	-85.7627
982.6	-85.7627
982.7	-85.7627
982.8	-85.7627
982.9	-85.7627
983	-85.7628
983.1	-85.7628
983.2	-85.7628
983.3	-85.7628
983.4	-85.7628
983.5	-85.7628
983.6	-85.7629
983.7	-85.7629
983.8	-85.7629
983.9	-85.7629
984	-85.7629
984.1	-85.7629
984.2	-85.763
984.3	-85.763
984.4	-85.763
984.5	-85.763
984.6	-85.763
984.7	-85.7631
984.8	-85.7631
984.9	-85.7631
985	-85.7631
985.1	-85.7631
985.2	-85.7631
985.3	-85.7632
985.4	-85.7632
985.5	-85.7632
985.6	-85.7632
985.7	-85.7632
985.8	-85.7632
985.9	-85.7633
986	-85.7633
986.1	-85.7633
986.2	-85.7633
986.3	-85.7633
986.4	-85.7633
986.5	-85.7634
986.6	-85.7634
986.7	-85.7634
986.8	-85.7634
986.9	-85.7634
987	-85.7635
987.1	-85.7635
987.2	-85.7635
987.3	-85.7635
987.4	-85.7635
987.5	-85.7635
987.6	-85.7636
987.7	-85.7636
987.8	-85.7636
987.9	-85.7636
988	-85.7636
988.1	-85.7636
988.2	-85.7637
988.3	-85.7637
988.4	-85.7637
988.5	-85.7637
988.6	-85.7637
988.7	-85.7637
988.8	-85.7638
988.9	-85.7638
989	-85.7638
989.1	-85.7638
989.2	-85.7638
989.3	-85.7638
989.4	-85.7639
989.5	-85.7639
989.6	-85.7639
989.7	-85.7639
989.8	-85.7639
989.9	-85.7639
990	-85.764
990.1	-85.764
990.2	-85.764
990.3	-85.764
990.4	-85.764
990.5	-85.764
990.6	-85.7641
990.7	-85.7641
990.8	-85.7641
990.9	-85.7641
991	-85.7641
991.1	-85.7641
991.2	-85.7642
991.3	-85.7642
991.4	-85.7642
991.5	-85.7642
991.6	-85.7642
991.7	-85.7643
991.8	-85.7643
991.9	-85.7643
992	-85.7643
992.1	-85.7643
992.2	-85.7643
992.3	-85.7644
992.4	-85.7644
992.5	-85.7644
992.6	-85.7644
992.7	-85.7644
992.8	-85.7644
992.9	-85.7645
993	-85.7645
993.1	-85.7645
993.2	-85.7645
993.3	-85.7645
993.4	-85.7645
993.5	-85.7646
993.6	-85.7646
993.7	-85.7646
993.8	-85.7646
993.9	-85.7646
994	-85.7646
994.1	-85.7647
994.2	-85.7647
994.3	-85.7647
994.4	-85.7647
994.5	-85.7647
994.6	-85.7647
994.7	-85.7648
994.8	-85.7648
994.9	-85.7648
995	-85.7648
995.1	-85.7648
995.2	-85.7648
995.3	-85.7649
995.4	-85.7649
995.5	-85.7649
995.6	-85.7649
995.7	-85.7649
995.8	-85.7649
995.9	-85.765
996	-85.765
996.1	-85.765
996.2	-85.765
996.3	-85.765
996.4	-85.765
996.5	-85.7651
996.6	-85.7651
996.7	-85.7651
996.8	-85.7651
996.9	-85.7651
997	-85.7651
997.1	-85.7651
997.2	-85.7652
997.3	-85.7652
997.4	-85.7652
997.5	-85.7652
997.6	-85.7652
997.7	-85.7652
997.8	-85.7653
997.9	-85.7653
998	-85.7653
998.1	-85.7653
998.2	-85.7653
998.3	-85.7653
998.4	-85.7654
998.5	-85.7654
998.6	-85.7654
998.7	-85.7654
998.8	-85.7654
998.9	-85.7654
999	-85.7655
999.1	-85.7655
999.2	-85.7655
999.3	-85.7655
999.4	-85.7655
999.5	-85.7655
999.6	-85.7656
999.7	-85.7656
999.8	-85.7656
999.9	-85.7656
1000	-85.7638
