Time(ms)	Membrane_Voltage(mV)
-5	-85.7746
-4.9	-85.7746
-4.8	-85.7746
-4.7	-85.7746
-4.6	-85.7746
-4.5	-85.7746
-4.4	-85.7747
-4.3	-85.7747
-4.2	-85.7747
-4.1	-85.7747
-4	-85.7747
-3.9	-85.7747
-3.8	-85.7748
-3.7	-85.7748
-3.6	-85.7748
-3.5	-85.7748
-3.4	-85.7748
-3.3	-85.7748
-3.2	-85.7748
-3.1	-85.7749
-3	-85.7749
-2.9	-85.7749
-2.8	-85.7749
-2.7	-85.7749
-2.6	-85.7749
-2.5	-85.775
-2.4	-85.775
-2.3	-85.775
-2.2	-85.775
-2.1	-85.775
-2	-85.775
-1.9	-85.7751
-1.8	-85.7751
-1.7	-85.7751
-1.6	-85.7751
-1.5	-85.7751
-1.4	-85.7751
-1.3	-85.7751
-1.2	-85.7752
-1.1	-85.7752
-1	-85.7752
-0.9	-85.7752
-0.8	-85.7752
-0.7	-85.7752
-0.6	-85.7753
-0.5	-85.7753
-0.4	-85.7753
-0.3	-85.7753
-0.2	-85.7753
-0.1	-85.7753
0	-85.7753
0.1	-84.1984
0.2	-82.6605
0.3	-81.1566
0.4	-79.6815
0.5	-78.2305
0.6	-76.7993
0.7	-75.3841
0.8	-73.9813
0.9	-72.5878
1	-71.2006
1.1	-69.8172
1.2	-68.4352
1.3	-67.0523
1.4	-65.6664
1.5	-64.2751
1.6	-62.8756
1.7	-61.4641
1.8	-60.035
1.9	-58.5792
2	-57.0823
2.1	-55.5191
2.2	-53.8465
2.3	-51.9866
2.4	-49.7901
2.5	-46.9455
2.6	-42.7218
2.7	-35.2524
2.8	-20.6285
2.9	0.391877
3	15.1893
3.1	22.0818
3.2	25.0615
3.3	26.351
3.4	26.927
3.5	27.2181
3.6	27.4176
3.7	27.6158
3.8	27.8565
3.9	28.1607
4	28.5371
4.1	28.9867
4.2	29.5058
4.3	30.0879
4.4	30.7248
4.5	31.4076
4.6	32.1276
4.7	32.8767
4.8	33.6479
4.9	34.4349
5	35.2327
5.1	34.4667
5.2	33.7587
5.3	33.1048
5.4	32.4991
5.5	31.9365
5.6	31.4118
5.7	30.921
5.8	30.4599
5.9	30.0253
6	29.6143
6.1	29.2244
6.2	28.8532
6.3	28.4989
6.4	28.1598
6.5	27.8346
6.6	27.5219
6.7	27.2207
6.8	26.93
6.9	26.6491
7	26.3772
7.1	26.1137
7.2	25.858
7.3	25.6097
7.4	25.3684
7.5	25.1336
7.6	24.9049
7.7	24.6822
7.8	24.4652
7.9	24.2535
8	24.0469
8.1	23.8453
8.2	23.6485
8.3	23.4562
8.4	23.2683
8.5	23.0848
8.6	22.9053
8.7	22.7299
8.8	22.5583
8.9	22.3905
9	22.2264
9.1	22.0659
9.2	21.9088
9.3	21.7551
9.4	21.6048
9.5	21.4576
9.6	21.3136
9.7	21.1727
9.8	21.0347
9.9	20.8997
10	20.7676
10.1	20.6383
10.2	20.5117
10.3	20.3877
10.4	20.2664
10.5	20.1477
10.6	20.0315
10.7	19.9177
10.8	19.8063
10.9	19.6973
11	19.5906
11.1	19.4861
11.2	19.3839
11.3	19.2838
11.4	19.1858
11.5	19.0899
11.6	18.9961
11.7	18.9042
11.8	18.8142
11.9	18.7262
12	18.64
12.1	18.5557
12.2	18.4731
12.3	18.3924
12.4	18.3133
12.5	18.2359
12.6	18.1601
12.7	18.086
12.8	18.0134
12.9	17.9424
13	17.8729
13.1	17.8048
13.2	17.7383
13.3	17.6731
13.4	17.6094
13.5	17.547
13.6	17.4859
13.7	17.4262
13.8	17.3677
13.9	17.3105
14	17.2545
14.1	17.1998
14.2	17.1462
14.3	17.0937
14.4	17.0424
14.5	16.9923
14.6	16.9432
14.7	16.8951
14.8	16.8481
14.9	16.8022
15	16.7572
15.1	16.7132
15.2	16.6702
15.3	16.6282
15.4	16.587
15.5	16.5468
15.6	16.5074
15.7	16.469
15.8	16.4314
15.9	16.3946
16	16.3586
16.1	16.3235
16.2	16.2891
16.3	16.2555
16.4	16.2227
16.5	16.1906
16.6	16.1593
16.7	16.1287
16.8	16.0987
16.9	16.0695
17	16.0409
17.1	16.013
17.2	15.9858
17.3	15.9592
17.4	15.9332
17.5	15.9078
17.6	15.8831
17.7	15.8589
17.8	15.8353
17.9	15.8123
18	15.7898
18.1	15.7679
18.2	15.7465
18.3	15.7257
18.4	15.7053
18.5	15.6855
18.6	15.6662
18.7	15.6473
18.8	15.6289
18.9	15.6111
19	15.5936
19.1	15.5766
19.2	15.5601
19.3	15.544
19.4	15.5283
19.5	15.5131
19.6	15.4982
19.7	15.4838
19.8	15.4697
19.9	15.4561
20	15.4428
20.1	15.4299
20.2	15.4174
20.3	15.4052
20.4	15.3934
20.5	15.3819
20.6	15.3707
20.7	15.3599
20.8	15.3494
20.9	15.3392
21	15.3294
21.1	15.3198
21.2	15.3106
21.3	15.3016
21.4	15.2929
21.5	15.2846
21.6	15.2764
21.7	15.2686
21.8	15.261
21.9	15.2537
22	15.2466
22.1	15.2398
22.2	15.2332
22.3	15.2269
22.4	15.2208
22.5	15.2149
22.6	15.2092
22.7	15.2038
22.8	15.1985
22.9	15.1935
23	15.1887
23.1	15.184
23.2	15.1796
23.3	15.1754
23.4	15.1713
23.5	15.1674
23.6	15.1637
23.7	15.1602
23.8	15.1568
23.9	15.1536
24	15.1505
24.1	15.1476
24.2	15.1449
24.3	15.1423
24.4	15.1398
24.5	15.1375
24.6	15.1353
24.7	15.1333
24.8	15.1313
24.9	15.1295
25	15.1278
25.1	15.1262
25.2	15.1248
25.3	15.1234
25.4	15.1222
25.5	15.121
25.6	15.12
25.7	15.119
25.8	15.1182
25.9	15.1174
26	15.1167
26.1	15.1161
26.2	15.1155
26.3	15.1151
26.4	15.1147
26.5	15.1144
26.6	15.1141
26.7	15.114
26.8	15.1138
26.9	15.1138
27	15.1138
27.1	15.1138
27.2	15.1139
27.3	15.1141
27.4	15.1142
27.5	15.1145
27.6	15.1147
27.7	15.1151
27.8	15.1154
27.9	15.1158
28	15.1162
28.1	15.1166
28.2	15.1171
28.3	15.1175
28.4	15.118
28.5	15.1186
28.6	15.1191
28.7	15.1196
28.8	15.1202
28.9	15.1208
29	15.1213
29.1	15.1219
29.2	15.1225
29.3	15.1231
29.4	15.1237
29.5	15.1243
29.6	15.1249
29.7	15.1254
29.8	15.126
29.9	15.1266
30	15.1271
30.1	15.1276
30.2	15.1282
30.3	15.1287
30.4	15.1292
30.5	15.1296
30.6	15.1301
30.7	15.1305
30.8	15.1309
30.9	15.1313
31	15.1316
31.1	15.1319
31.2	15.1322
31.3	15.1325
31.4	15.1327
31.5	15.1329
31.6	15.133
31.7	15.1331
31.8	15.1332
31.9	15.1333
32	15.1333
32.1	15.1332
32.2	15.1331
32.3	15.133
32.4	15.1328
32.5	15.1326
32.6	15.1323
32.7	15.132
32.8	15.1317
32.9	15.1312
33	15.1308
33.1	15.1303
33.2	15.1297
33.3	15.1291
33.4	15.1284
33.5	15.1276
33.6	15.1268
33.7	15.126
33.8	15.1251
33.9	15.1241
34	15.1231
34.1	15.122
34.2	15.1208
34.3	15.1196
34.4	15.1183
34.5	15.117
34.6	15.1156
34.7	15.1141
34.8	15.1125
34.9	15.1109
35	15.1093
35.1	15.1075
35.2	15.1057
35.3	15.1038
35.4	15.1019
35.5	15.0999
35.6	15.0978
35.7	15.0956
35.8	15.0934
35.9	15.0911
36	15.0887
36.1	15.0862
36.2	15.0837
36.3	15.0811
36.4	15.0784
36.5	15.0757
36.6	15.0728
36.7	15.0699
36.8	15.067
36.9	15.0639
37	15.0608
37.1	15.0576
37.2	15.0543
37.3	15.0509
37.4	15.0475
37.5	15.0439
37.6	15.0403
37.7	15.0367
37.8	15.0329
37.9	15.0291
38	15.0252
38.1	15.0212
38.2	15.0171
38.3	15.0129
38.4	15.0087
38.5	15.0044
38.6	15
38.7	14.9955
38.8	14.9909
38.9	14.9863
39	14.9816
39.1	14.9767
39.2	14.9719
39.3	14.9669
39.4	14.9618
39.5	14.9567
39.6	14.9515
39.7	14.9462
39.8	14.9408
39.9	14.9353
40	14.9298
40.1	14.9242
40.2	14.9185
40.3	14.9127
40.4	14.9068
40.5	14.9008
40.6	14.8948
40.7	14.8887
40.8	14.8824
40.9	14.8762
41	14.8698
41.1	14.8633
41.2	14.8568
41.3	14.8502
41.4	14.8435
41.5	14.8367
41.6	14.8298
41.7	14.8229
41.8	14.8158
41.9	14.8087
42	14.8015
42.1	14.7942
42.2	14.7869
42.3	14.7794
42.4	14.7719
42.5	14.7643
42.6	14.7566
42.7	14.7488
42.8	14.741
42.9	14.733
43	14.725
43.1	14.7169
43.2	14.7087
43.3	14.7004
43.4	14.6921
43.5	14.6837
43.6	14.6752
43.7	14.6666
43.8	14.6579
43.9	14.6492
44	14.6403
44.1	14.6314
44.2	14.6224
44.3	14.6134
44.4	14.6042
44.5	14.595
44.6	14.5857
44.7	14.5763
44.8	14.5668
44.9	14.5573
45	14.5477
45.1	14.538
45.2	14.5282
45.3	14.5183
45.4	14.5084
45.5	14.4984
45.6	14.4883
45.7	14.4781
45.8	14.4679
45.9	14.4576
46	14.4472
46.1	14.4367
46.2	14.4261
46.3	14.4155
46.4	14.4048
46.5	14.394
46.6	14.3832
46.7	14.3722
46.8	14.3612
46.9	14.3501
47	14.339
47.1	14.3278
47.2	14.3164
47.3	14.3051
47.4	14.2936
47.5	14.2821
47.6	14.2705
47.7	14.2588
47.8	14.2471
47.9	14.2352
48	14.2233
48.1	14.2114
48.2	14.1993
48.3	14.1872
48.4	14.175
48.5	14.1628
48.6	14.1505
48.7	14.1381
48.8	14.1256
48.9	14.1131
49	14.1004
49.1	14.0878
49.2	14.075
49.3	14.0622
49.4	14.0493
49.5	14.0364
49.6	14.0233
49.7	14.0102
49.8	13.9971
49.9	13.9838
50	13.9705
50.1	13.9572
50.2	13.9437
50.3	13.9302
50.4	13.9167
50.5	13.903
50.6	13.8893
50.7	13.8755
50.8	13.8617
50.9	13.8478
51	13.8338
51.1	13.8198
51.2	13.8057
51.3	13.7915
51.4	13.7773
51.5	13.763
51.6	13.7487
51.7	13.7342
51.8	13.7197
51.9	13.7052
52	13.6906
52.1	13.6759
52.2	13.6612
52.3	13.6464
52.4	13.6315
52.5	13.6166
52.6	13.6016
52.7	13.5865
52.8	13.5714
52.9	13.5562
53	13.541
53.1	13.5257
53.2	13.5104
53.3	13.4949
53.4	13.4795
53.5	13.4639
53.6	13.4483
53.7	13.4327
53.8	13.417
53.9	13.4012
54	13.3853
54.1	13.3695
54.2	13.3535
54.3	13.3375
54.4	13.3214
54.5	13.3053
54.6	13.2891
54.7	13.2729
54.8	13.2566
54.9	13.2402
55	13.2238
55.1	13.2074
55.2	13.1908
55.3	13.1743
55.4	13.1576
55.5	13.1409
55.6	13.1242
55.7	13.1074
55.8	13.0905
55.9	13.0736
56	13.0567
56.1	13.0397
56.2	13.0226
56.3	13.0055
56.4	12.9883
56.5	12.971
56.6	12.9538
56.7	12.9364
56.8	12.919
56.9	12.9016
57	12.8841
57.1	12.8666
57.2	12.849
57.3	12.8313
57.4	12.8136
57.5	12.7958
57.6	12.778
57.7	12.7602
57.8	12.7423
57.9	12.7243
58	12.7063
58.1	12.6883
58.2	12.6702
58.3	12.652
58.4	12.6338
58.5	12.6155
58.6	12.5972
58.7	12.5789
58.8	12.5605
58.9	12.542
59	12.5235
59.1	12.505
59.2	12.4864
59.3	12.4677
59.4	12.4491
59.5	12.4303
59.6	12.4115
59.7	12.3927
59.8	12.3738
59.9	12.3549
60	12.3359
60.1	12.3169
60.2	12.2978
60.3	12.2787
60.4	12.2596
60.5	12.2404
60.6	12.2211
60.7	12.2018
60.8	12.1825
60.9	12.1631
61	12.1437
61.1	12.1242
61.2	12.1047
61.3	12.0851
61.4	12.0655
61.5	12.0459
61.6	12.0262
61.7	12.0065
61.8	11.9867
61.9	11.9669
62	11.947
62.1	11.9271
62.2	11.9071
62.3	11.8871
62.4	11.8671
62.5	11.847
62.6	11.8269
62.7	11.8067
62.8	11.7865
62.9	11.7663
63	11.746
63.1	11.7257
63.2	11.7053
63.3	11.6849
63.4	11.6644
63.5	11.6439
63.6	11.6234
63.7	11.6028
63.8	11.5822
63.9	11.5615
64	11.5408
64.1	11.5201
64.2	11.4993
64.3	11.4785
64.4	11.4577
64.5	11.4368
64.6	11.4158
64.7	11.3948
64.8	11.3738
64.9	11.3528
65	11.3317
65.1	11.3106
65.2	11.2894
65.3	11.2682
65.4	11.2469
65.5	11.2257
65.6	11.2043
65.7	11.183
65.8	11.1616
65.9	11.1401
66	11.1187
66.1	11.0972
66.2	11.0756
66.3	11.054
66.4	11.0324
66.5	11.0107
66.6	10.989
66.7	10.9673
66.8	10.9455
66.9	10.9237
67	10.9019
67.1	10.88
67.2	10.8581
67.3	10.8361
67.4	10.8141
67.5	10.7921
67.6	10.7701
67.7	10.748
67.8	10.7258
67.9	10.7037
68	10.6815
68.1	10.6592
68.2	10.6369
68.3	10.6146
68.4	10.5923
68.5	10.5699
68.6	10.5475
68.7	10.525
68.8	10.5026
68.9	10.48
69	10.4575
69.1	10.4349
69.2	10.4123
69.3	10.3896
69.4	10.3669
69.5	10.3442
69.6	10.3214
69.7	10.2987
69.8	10.2758
69.9	10.253
70	10.2301
70.1	10.2071
70.2	10.1842
70.3	10.1612
70.4	10.1382
70.5	10.1151
70.6	10.092
70.7	10.0689
70.8	10.0457
70.9	10.0225
71	9.99928
71.1	9.97602
71.2	9.95272
71.3	9.92939
71.4	9.90603
71.5	9.88264
71.6	9.85921
71.7	9.83576
71.8	9.81226
71.9	9.78874
72	9.76518
72.1	9.7416
72.2	9.71798
72.3	9.69432
72.4	9.67064
72.5	9.64692
72.6	9.62317
72.7	9.59939
72.8	9.57557
72.9	9.55173
73	9.52785
73.1	9.50394
73.2	9.48
73.3	9.45602
73.4	9.43202
73.5	9.40798
73.6	9.38391
73.7	9.35981
73.8	9.33568
73.9	9.31152
74	9.28732
74.1	9.2631
74.2	9.23884
74.3	9.21455
74.4	9.19023
74.5	9.16588
74.6	9.1415
74.7	9.11708
74.8	9.09264
74.9	9.06816
75	9.04365
75.1	9.01911
75.2	8.99454
75.3	8.96994
75.4	8.94531
75.5	8.92065
75.6	8.89595
75.7	8.87123
75.8	8.84647
75.9	8.82168
76	8.79687
76.1	8.77202
76.2	8.74714
76.3	8.72223
76.4	8.69728
76.5	8.67231
76.6	8.64731
76.7	8.62228
76.8	8.59721
76.9	8.57212
77	8.54699
77.1	8.52183
77.2	8.49665
77.3	8.47143
77.4	8.44618
77.5	8.4209
77.6	8.39559
77.7	8.37025
77.8	8.34488
77.9	8.31947
78	8.29404
78.1	8.26858
78.2	8.24308
78.3	8.21756
78.4	8.192
78.5	8.16642
78.6	8.1408
78.7	8.11515
78.8	8.08947
78.9	8.06376
79	8.03802
79.1	8.01225
79.2	7.98645
79.3	7.96062
79.4	7.93476
79.5	7.90887
79.6	7.88294
79.7	7.85699
79.8	7.831
79.9	7.80499
80	7.77894
80.1	7.75287
80.2	7.72676
80.3	7.70062
80.4	7.67445
80.5	7.64825
80.6	7.62202
80.7	7.59576
80.8	7.56946
80.9	7.54314
81	7.51679
81.1	7.4904
81.2	7.46399
81.3	7.43754
81.4	7.41106
81.5	7.38455
81.6	7.35801
81.7	7.33144
81.8	7.30484
81.9	7.27821
82	7.25154
82.1	7.22485
82.2	7.19812
82.3	7.17136
82.4	7.14457
82.5	7.11775
82.6	7.0909
82.7	7.06402
82.8	7.03711
82.9	7.01016
83	6.98318
83.1	6.95618
83.2	6.92914
83.3	6.90207
83.4	6.87496
83.5	6.84783
83.6	6.82066
83.7	6.79347
83.8	6.76624
83.9	6.73898
84	6.71168
84.1	6.68436
84.2	6.657
84.3	6.62962
84.4	6.6022
84.5	6.57474
84.6	6.54726
84.7	6.51975
84.8	6.4922
84.9	6.46462
85	6.43701
85.1	6.40936
85.2	6.38169
85.3	6.35398
85.4	6.32624
85.5	6.29846
85.6	6.27066
85.7	6.24282
85.8	6.21495
85.9	6.18704
86	6.15911
86.1	6.13114
86.2	6.10314
86.3	6.0751
86.4	6.04703
86.5	6.01893
86.6	5.9908
86.7	5.96263
86.8	5.93444
86.9	5.9062
87	5.87794
87.1	5.84964
87.2	5.82131
87.3	5.79294
87.4	5.76454
87.5	5.73611
87.6	5.70764
87.7	5.67914
87.8	5.65061
87.9	5.62204
88	5.59344
88.1	5.56481
88.2	5.53614
88.3	5.50744
88.4	5.4787
88.5	5.44993
88.6	5.42113
88.7	5.39229
88.8	5.36341
88.9	5.33451
89	5.30556
89.1	5.27659
89.2	5.24758
89.3	5.21853
89.4	5.18945
89.5	5.16033
89.6	5.13118
89.7	5.102
89.8	5.07278
89.9	5.04353
90	5.01423
90.1	4.98491
90.2	4.95555
90.3	4.92615
90.4	4.89672
90.5	4.86726
90.6	4.83775
90.7	4.80822
90.8	4.77864
90.9	4.74903
91	4.71939
91.1	4.68971
91.2	4.65999
91.3	4.63023
91.4	4.60045
91.5	4.57062
91.6	4.54076
91.7	4.51086
91.8	4.48092
91.9	4.45095
92	4.42094
92.1	4.3909
92.2	4.36082
92.3	4.3307
92.4	4.30054
92.5	4.27035
92.6	4.24012
92.7	4.20986
92.8	4.17955
92.9	4.14921
93	4.11883
93.1	4.08842
93.2	4.05796
93.3	4.02747
93.4	3.99694
93.5	3.96637
93.6	3.93577
93.7	3.90512
93.8	3.87444
93.9	3.84372
94	3.81297
94.1	3.78217
94.2	3.75134
94.3	3.72046
94.4	3.68955
94.5	3.6586
94.6	3.62761
94.7	3.59658
94.8	3.56552
94.9	3.53441
95	3.50326
95.1	3.47208
95.2	3.44086
95.3	3.40959
95.4	3.37829
95.5	3.34695
95.6	3.31557
95.7	3.28414
95.8	3.25268
95.9	3.22118
96	3.18964
96.1	3.15806
96.2	3.12644
96.3	3.09477
96.4	3.06307
96.5	3.03133
96.6	2.99955
96.7	2.96772
96.8	2.93586
96.9	2.90395
97	2.872
97.1	2.84002
97.2	2.80799
97.3	2.77592
97.4	2.74381
97.5	2.71166
97.6	2.67946
97.7	2.64723
97.8	2.61495
97.9	2.58263
98	2.55027
98.1	2.51787
98.2	2.48542
98.3	2.45294
98.4	2.42041
98.5	2.38784
98.6	2.35522
98.7	2.32257
98.8	2.28987
98.9	2.25713
99	2.22435
99.1	2.19152
99.2	2.15865
99.3	2.12574
99.4	2.09279
99.5	2.05979
99.6	2.02675
99.7	1.99366
99.8	1.96053
99.9	1.92736
100	1.89414
100.1	1.86088
100.2	1.82758
100.3	1.79423
100.4	1.76084
100.5	1.72741
100.6	1.69393
100.7	1.66041
100.8	1.62684
100.9	1.59323
101	1.55957
101.1	1.52587
101.2	1.49213
101.3	1.45834
101.4	1.4245
101.5	1.39062
101.6	1.3567
101.7	1.32273
101.8	1.28872
101.9	1.25466
102	1.22055
102.1	1.1864
102.2	1.15221
102.3	1.11796
102.4	1.08368
102.5	1.04935
102.6	1.01497
102.7	0.980543
102.8	0.946073
102.9	0.911557
103	0.876995
103.1	0.842386
103.2	0.807732
103.3	0.773031
103.4	0.738284
103.5	0.70349
103.6	0.66865
103.7	0.633763
103.8	0.598829
103.9	0.563848
104	0.528821
104.1	0.493747
104.2	0.458626
104.3	0.423457
104.4	0.388242
104.5	0.352979
104.6	0.317669
104.7	0.282312
104.8	0.246907
104.9	0.211455
105	0.175955
105.1	0.140408
105.2	0.104812
105.3	0.0691695
105.4	0.0334787
105.5	-0.00225996
105.6	-0.0380466
105.7	-0.0738813
105.8	-0.109764
105.9	-0.145695
106	-0.181674
106.1	-0.217702
106.2	-0.253777
106.3	-0.289902
106.4	-0.326074
106.5	-0.362295
106.6	-0.398565
106.7	-0.434884
106.8	-0.471251
106.9	-0.507666
107	-0.544131
107.1	-0.580645
107.2	-0.617207
107.3	-0.653818
107.4	-0.690479
107.5	-0.727188
107.6	-0.763947
107.7	-0.800754
107.8	-0.837611
107.9	-0.874517
108	-0.911473
108.1	-0.948478
108.2	-0.985532
108.3	-1.02264
108.4	-1.05979
108.5	-1.09699
108.6	-1.13424
108.7	-1.17155
108.8	-1.2089
108.9	-1.2463
109	-1.28375
109.1	-1.32125
109.2	-1.3588
109.3	-1.3964
109.4	-1.43405
109.5	-1.47175
109.6	-1.5095
109.7	-1.5473
109.8	-1.58515
109.9	-1.62305
110	-1.661
110.1	-1.699
110.2	-1.73705
110.3	-1.77515
110.4	-1.8133
110.5	-1.8515
110.6	-1.88975
110.7	-1.92805
110.8	-1.9664
110.9	-2.0048
111	-2.04325
111.1	-2.08175
111.2	-2.1203
111.3	-2.15891
111.4	-2.19756
111.5	-2.23626
111.6	-2.27501
111.7	-2.31382
111.8	-2.35267
111.9	-2.39157
112	-2.43053
112.1	-2.46953
112.2	-2.50858
112.3	-2.54769
112.4	-2.58684
112.5	-2.62605
112.6	-2.66531
112.7	-2.70461
112.8	-2.74397
112.9	-2.78337
113	-2.82283
113.1	-2.86234
113.2	-2.90189
113.3	-2.9415
113.4	-2.98116
113.5	-3.02087
113.6	-3.06063
113.7	-3.10043
113.8	-3.14029
113.9	-3.1802
114	-3.22016
114.1	-3.26017
114.2	-3.30023
114.3	-3.34033
114.4	-3.38049
114.5	-3.4207
114.6	-3.46096
114.7	-3.50127
114.8	-3.54163
114.9	-3.58203
115	-3.62249
115.1	-3.663
115.2	-3.70355
115.3	-3.74416
115.4	-3.78482
115.5	-3.82552
115.6	-3.86628
115.7	-3.90708
115.8	-3.94794
115.9	-3.98884
116	-4.02979
116.1	-4.0708
116.2	-4.11185
116.3	-4.15295
116.4	-4.1941
116.5	-4.23529
116.6	-4.27654
116.7	-4.31784
116.8	-4.35918
116.9	-4.40058
117	-4.44202
117.1	-4.48351
117.2	-4.52505
117.3	-4.56664
117.4	-4.60828
117.5	-4.64996
117.6	-4.69169
117.7	-4.73347
117.8	-4.7753
117.9	-4.81718
118	-4.85911
118.1	-4.90108
118.2	-4.9431
118.3	-4.98517
118.4	-5.02728
118.5	-5.06945
118.6	-5.11166
118.7	-5.15392
118.8	-5.19622
118.9	-5.23858
119	-5.28098
119.1	-5.32342
119.2	-5.36592
119.3	-5.40846
119.4	-5.45104
119.5	-5.49368
119.6	-5.53636
119.7	-5.57908
119.8	-5.62185
119.9	-5.66467
120	-5.70754
120.1	-5.75045
120.2	-5.7934
120.3	-5.8364
120.4	-5.87945
120.5	-5.92254
120.6	-5.96568
120.7	-6.00886
120.8	-6.05209
120.9	-6.09536
121	-6.13868
121.1	-6.18204
121.2	-6.22545
121.3	-6.2689
121.4	-6.3124
121.5	-6.35594
121.6	-6.39952
121.7	-6.44315
121.8	-6.48682
121.9	-6.53053
122	-6.57429
122.1	-6.61809
122.2	-6.66194
122.3	-6.70583
122.4	-6.74976
122.5	-6.79373
122.6	-6.83775
122.7	-6.88181
122.8	-6.92591
122.9	-6.97005
123	-7.01423
123.1	-7.05846
123.2	-7.10273
123.3	-7.14704
123.4	-7.19139
123.5	-7.23579
123.6	-7.28022
123.7	-7.3247
123.8	-7.36921
123.9	-7.41377
124	-7.45837
124.1	-7.50301
124.2	-7.54769
124.3	-7.5924
124.4	-7.63716
124.5	-7.68196
124.6	-7.7268
124.7	-7.77167
124.8	-7.81659
124.9	-7.86155
125	-7.90654
125.1	-7.95157
125.2	-7.99665
125.3	-8.04176
125.4	-8.08691
125.5	-8.13209
125.6	-8.17732
125.7	-8.22258
125.8	-8.26788
125.9	-8.31322
126	-8.35859
126.1	-8.404
126.2	-8.44945
126.3	-8.49494
126.4	-8.54046
126.5	-8.58602
126.6	-8.63162
126.7	-8.67725
126.8	-8.72292
126.9	-8.76862
127	-8.81436
127.1	-8.86013
127.2	-8.90594
127.3	-8.95179
127.4	-8.99767
127.5	-9.04358
127.6	-9.08953
127.7	-9.13552
127.8	-9.18154
127.9	-9.22759
128	-9.27367
128.1	-9.31979
128.2	-9.36595
128.3	-9.41214
128.4	-9.45836
128.5	-9.50461
128.6	-9.5509
128.7	-9.59722
128.8	-9.64357
128.9	-9.68995
129	-9.73637
129.1	-9.78282
129.2	-9.8293
129.3	-9.87581
129.4	-9.92236
129.5	-9.96893
129.6	-10.0155
129.7	-10.0622
129.8	-10.1088
129.9	-10.1555
130	-10.2023
130.1	-10.249
130.2	-10.2958
130.3	-10.3427
130.4	-10.3895
130.5	-10.4364
130.6	-10.4833
130.7	-10.5302
130.8	-10.5772
130.9	-10.6242
131	-10.6712
131.1	-10.7183
131.2	-10.7654
131.3	-10.8125
131.4	-10.8596
131.5	-10.9068
131.6	-10.954
131.7	-11.0012
131.8	-11.0485
131.9	-11.0958
132	-11.1431
132.1	-11.1904
132.2	-11.2378
132.3	-11.2852
132.4	-11.3326
132.5	-11.3801
132.6	-11.4275
132.7	-11.475
132.8	-11.5226
132.9	-11.5701
133	-11.6177
133.1	-11.6653
133.2	-11.7129
133.3	-11.7606
133.4	-11.8083
133.5	-11.856
133.6	-11.9037
133.7	-11.9515
133.8	-11.9993
133.9	-12.0471
134	-12.0949
134.1	-12.1428
134.2	-12.1906
134.3	-12.2386
134.4	-12.2865
134.5	-12.3344
134.6	-12.3824
134.7	-12.4304
134.8	-12.4785
134.9	-12.5265
135	-12.5746
135.1	-12.6227
135.2	-12.6708
135.3	-12.719
135.4	-12.7671
135.5	-12.8153
135.6	-12.8635
135.7	-12.9118
135.8	-12.96
135.9	-13.0083
136	-13.0566
136.1	-13.105
136.2	-13.1533
136.3	-13.2017
136.4	-13.2501
136.5	-13.2985
136.6	-13.3469
136.7	-13.3954
136.8	-13.4439
136.9	-13.4924
137	-13.5409
137.1	-13.5895
137.2	-13.6381
137.3	-13.6866
137.4	-13.7353
137.5	-13.7839
137.6	-13.8326
137.7	-13.8812
137.8	-13.9299
137.9	-13.9787
138	-14.0274
138.1	-14.0762
138.2	-14.125
138.3	-14.1738
138.4	-14.2226
138.5	-14.2714
138.6	-14.3203
138.7	-14.3692
138.8	-14.4181
138.9	-14.467
139	-14.516
139.1	-14.565
139.2	-14.614
139.3	-14.663
139.4	-14.712
139.5	-14.7611
139.6	-14.8101
139.7	-14.8592
139.8	-14.9083
139.9	-14.9575
140	-15.0066
140.1	-15.0558
140.2	-15.105
140.3	-15.1542
140.4	-15.2035
140.5	-15.2527
140.6	-15.302
140.7	-15.3513
140.8	-15.4006
140.9	-15.45
141	-15.4993
141.1	-15.5487
141.2	-15.5981
141.3	-15.6475
141.4	-15.697
141.5	-15.7464
141.6	-15.7959
141.7	-15.8454
141.8	-15.895
141.9	-15.9445
142	-15.9941
142.1	-16.0437
142.2	-16.0933
142.3	-16.1429
142.4	-16.1926
142.5	-16.2422
142.6	-16.2919
142.7	-16.3416
142.8	-16.3914
142.9	-16.4411
143	-16.4909
143.1	-16.5407
143.2	-16.5905
143.3	-16.6404
143.4	-16.6903
143.5	-16.7401
143.6	-16.7901
143.7	-16.84
143.8	-16.8899
143.9	-16.9399
144	-16.9899
144.1	-17.0399
144.2	-17.09
144.3	-17.1401
144.4	-17.1901
144.5	-17.2403
144.6	-17.2904
144.7	-17.3406
144.8	-17.3907
144.9	-17.4409
145	-17.4912
145.1	-17.5414
145.2	-17.5917
145.3	-17.642
145.4	-17.6924
145.5	-17.7427
145.6	-17.7931
145.7	-17.8435
145.8	-17.8939
145.9	-17.9444
146	-17.9949
146.1	-18.0454
146.2	-18.0959
146.3	-18.1465
146.4	-18.197
146.5	-18.2477
146.6	-18.2983
146.7	-18.349
146.8	-18.3997
146.9	-18.4504
147	-18.5011
147.1	-18.5519
147.2	-18.6027
147.3	-18.6536
147.4	-18.7044
147.5	-18.7553
147.6	-18.8063
147.7	-18.8572
147.8	-18.9082
147.9	-18.9592
148	-19.0103
148.1	-19.0614
148.2	-19.1125
148.3	-19.1636
148.4	-19.2148
148.5	-19.266
148.6	-19.3172
148.7	-19.3685
148.8	-19.4198
148.9	-19.4712
149	-19.5226
149.1	-19.574
149.2	-19.6254
149.3	-19.6769
149.4	-19.7284
149.5	-19.78
149.6	-19.8316
149.7	-19.8832
149.8	-19.9349
149.9	-19.9866
150	-20.0383
150.1	-20.0901
150.2	-20.142
150.3	-20.1938
150.4	-20.2457
150.5	-20.2977
150.6	-20.3497
150.7	-20.4017
150.8	-20.4538
150.9	-20.5059
151	-20.5581
151.1	-20.6103
151.2	-20.6625
151.3	-20.7148
151.4	-20.7672
151.5	-20.8195
151.6	-20.872
151.7	-20.9245
151.8	-20.977
151.9	-21.0296
152	-21.0822
152.1	-21.1349
152.2	-21.1876
152.3	-21.2404
152.4	-21.2932
152.5	-21.3461
152.6	-21.399
152.7	-21.452
152.8	-21.5051
152.9	-21.5582
153	-21.6113
153.1	-21.6645
153.2	-21.7178
153.3	-21.7711
153.4	-21.8245
153.5	-21.878
153.6	-21.9315
153.7	-21.985
153.8	-22.0387
153.9	-22.0923
154	-22.1461
154.1	-22.1999
154.2	-22.2538
154.3	-22.3077
154.4	-22.3617
154.5	-22.4158
154.6	-22.47
154.7	-22.5242
154.8	-22.5785
154.9	-22.6328
155	-22.6872
155.1	-22.7417
155.2	-22.7963
155.3	-22.851
155.4	-22.9057
155.5	-22.9605
155.6	-23.0153
155.7	-23.0703
155.8	-23.1253
155.9	-23.1804
156	-23.2356
156.1	-23.2909
156.2	-23.3462
156.3	-23.4016
156.4	-23.4571
156.5	-23.5127
156.6	-23.5684
156.7	-23.6242
156.8	-23.6801
156.9	-23.736
157	-23.792
157.1	-23.8482
157.2	-23.9044
157.3	-23.9607
157.4	-24.0171
157.5	-24.0736
157.6	-24.1302
157.7	-24.1869
157.8	-24.2437
157.9	-24.3006
158	-24.3576
158.1	-24.4147
158.2	-24.4719
158.3	-24.5293
158.4	-24.5867
158.5	-24.6442
158.6	-24.7018
158.7	-24.7596
158.8	-24.8174
158.9	-24.8754
159	-24.9334
159.1	-24.9916
159.2	-25.0499
159.3	-25.1084
159.4	-25.1669
159.5	-25.2255
159.6	-25.2843
159.7	-25.3432
159.8	-25.4022
159.9	-25.4614
160	-25.5207
160.1	-25.5801
160.2	-25.6396
160.3	-25.6992
160.4	-25.759
160.5	-25.8189
160.6	-25.879
160.7	-25.9392
160.8	-25.9995
160.9	-26.06
161	-26.1206
161.1	-26.1813
161.2	-26.2422
161.3	-26.3032
161.4	-26.3644
161.5	-26.4257
161.6	-26.4871
161.7	-26.5488
161.8	-26.6105
161.9	-26.6724
162	-26.7345
162.1	-26.7967
162.2	-26.8591
162.3	-26.9216
162.4	-26.9843
162.5	-27.0471
162.6	-27.1101
162.7	-27.1733
162.8	-27.2366
162.9	-27.3002
163	-27.3638
163.1	-27.4277
163.2	-27.4917
163.3	-27.5558
163.4	-27.6202
163.5	-27.6847
163.6	-27.7494
163.7	-27.8143
163.8	-27.8794
163.9	-27.9446
164	-28.01
164.1	-28.0756
164.2	-28.1414
164.3	-28.2074
164.4	-28.2735
164.5	-28.3399
164.6	-28.4064
164.7	-28.4732
164.8	-28.5401
164.9	-28.6072
165	-28.6745
165.1	-28.742
165.2	-28.8098
165.3	-28.8777
165.4	-28.9458
165.5	-29.0141
165.6	-29.0826
165.7	-29.1514
165.8	-29.2203
165.9	-29.2895
166	-29.3588
166.1	-29.4284
166.2	-29.4982
166.3	-29.5682
166.4	-29.6384
166.5	-29.7088
166.6	-29.7795
166.7	-29.8504
166.8	-29.9215
166.9	-29.9928
167	-30.0643
167.1	-30.1361
167.2	-30.2081
167.3	-30.2803
167.4	-30.3528
167.5	-30.4255
167.6	-30.4984
167.7	-30.5716
167.8	-30.645
167.9	-30.7186
168	-30.7925
168.1	-30.8666
168.2	-30.941
168.3	-31.0156
168.4	-31.0904
168.5	-31.1655
168.6	-31.2408
168.7	-31.3164
168.8	-31.3922
168.9	-31.4683
169	-31.5446
169.1	-31.6212
169.2	-31.698
169.3	-31.7751
169.4	-31.8525
169.5	-31.9301
169.6	-32.0079
169.7	-32.086
169.8	-32.1644
169.9	-32.2431
170	-32.322
170.1	-32.4011
170.2	-32.4806
170.3	-32.5603
170.4	-32.6402
170.5	-32.7205
170.6	-32.801
170.7	-32.8818
170.8	-32.9628
170.9	-33.0442
171	-33.1258
171.1	-33.2077
171.2	-33.2898
171.3	-33.3722
171.4	-33.455
171.5	-33.538
171.6	-33.6212
171.7	-33.7048
171.8	-33.7886
171.9	-33.8728
172	-33.9572
172.1	-34.0419
172.2	-34.1269
172.3	-34.2122
172.4	-34.2977
172.5	-34.3836
172.6	-34.4698
172.7	-34.5562
172.8	-34.643
172.9	-34.73
173	-34.8174
173.1	-34.905
173.2	-34.9929
173.3	-35.0812
173.4	-35.1697
173.5	-35.2586
173.6	-35.3477
173.7	-35.4372
173.8	-35.5269
173.9	-35.617
174	-35.7073
174.1	-35.798
174.2	-35.889
174.3	-35.9803
174.4	-36.072
174.5	-36.1639
174.6	-36.2561
174.7	-36.3487
174.8	-36.4416
174.9	-36.5348
175	-36.6283
175.1	-36.7222
175.2	-36.8163
175.3	-36.9108
175.4	-37.0056
175.5	-37.1008
175.6	-37.1962
175.7	-37.292
175.8	-37.3881
175.9	-37.4846
176	-37.5814
176.1	-37.6785
176.2	-37.776
176.3	-37.8738
176.4	-37.9719
176.5	-38.0704
176.6	-38.1692
176.7	-38.2683
176.8	-38.3678
176.9	-38.4677
177	-38.5679
177.1	-38.6684
177.2	-38.7693
177.3	-38.8705
177.4	-38.9721
177.5	-39.074
177.6	-39.1763
177.7	-39.279
177.8	-39.382
177.9	-39.4854
178	-39.5891
178.1	-39.6932
178.2	-39.7976
178.3	-39.9025
178.4	-40.0077
178.5	-40.1132
178.6	-40.2192
178.7	-40.3255
178.8	-40.4321
178.9	-40.5392
179	-40.6466
179.1	-40.7544
179.2	-40.8626
179.3	-40.9712
179.4	-41.0802
179.5	-41.1895
179.6	-41.2993
179.7	-41.4094
179.8	-41.5199
179.9	-41.6308
180	-41.7421
180.1	-41.8538
180.2	-41.966
180.3	-42.0785
180.4	-42.1914
180.5	-42.3047
180.6	-42.4185
180.7	-42.5326
180.8	-42.6472
180.9	-42.7621
181	-42.8775
181.1	-42.9934
181.2	-43.1096
181.3	-43.2263
181.4	-43.3434
181.5	-43.4609
181.6	-43.5788
181.7	-43.6972
181.8	-43.8161
181.9	-43.9353
182	-44.055
182.1	-44.1752
182.2	-44.2958
182.3	-44.4169
182.4	-44.5384
182.5	-44.6603
182.6	-44.7828
182.7	-44.9057
182.8	-45.029
182.9	-45.1528
183	-45.2771
183.1	-45.4019
183.2	-45.5271
183.3	-45.6528
183.4	-45.779
183.5	-45.9057
183.6	-46.0329
183.7	-46.1606
183.8	-46.2887
183.9	-46.4174
184	-46.5465
184.1	-46.6762
184.2	-46.8064
184.3	-46.9371
184.4	-47.0683
184.5	-47.2
184.6	-47.3322
184.7	-47.465
184.8	-47.5983
184.9	-47.7321
185	-47.8665
185.1	-48.0014
185.2	-48.1368
185.3	-48.2728
185.4	-48.4094
185.5	-48.5465
185.6	-48.6842
185.7	-48.8224
185.8	-48.9612
185.9	-49.1005
186	-49.2405
186.1	-49.381
186.2	-49.5221
186.3	-49.6638
186.4	-49.8061
186.5	-49.9489
186.6	-50.0924
186.7	-50.2365
186.8	-50.3812
186.9	-50.5265
187	-50.6724
187.1	-50.8189
187.2	-50.966
187.3	-51.1138
187.4	-51.2622
187.5	-51.4113
187.6	-51.561
187.7	-51.7113
187.8	-51.8623
187.9	-52.0139
188	-52.1662
188.1	-52.3192
188.2	-52.4728
188.3	-52.6271
188.4	-52.782
188.5	-52.9377
188.6	-53.094
188.7	-53.251
188.8	-53.4087
188.9	-53.5671
189	-53.7261
189.1	-53.8859
189.2	-54.0464
189.3	-54.2076
189.4	-54.3695
189.5	-54.5321
189.6	-54.6954
189.7	-54.8594
189.8	-55.0242
189.9	-55.1897
190	-55.3559
190.1	-55.5228
190.2	-55.6905
190.3	-55.8589
190.4	-56.0281
190.5	-56.1979
190.6	-56.3686
190.7	-56.5399
190.8	-56.712
190.9	-56.8848
191	-57.0584
191.1	-57.2327
191.2	-57.4078
191.3	-57.5836
191.4	-57.7601
191.5	-57.9374
191.6	-58.1155
191.7	-58.2942
191.8	-58.4737
191.9	-58.654
192	-58.8349
192.1	-59.0166
192.2	-59.199
192.3	-59.3822
192.4	-59.566
192.5	-59.7506
192.6	-59.9359
192.7	-60.1218
192.8	-60.3085
192.9	-60.4959
193	-60.6839
193.1	-60.8726
193.2	-61.062
193.3	-61.252
193.4	-61.4427
193.5	-61.634
193.6	-61.826
193.7	-62.0186
193.8	-62.2117
193.9	-62.4055
194	-62.5998
194.1	-62.7947
194.2	-62.9902
194.3	-63.1862
194.4	-63.3827
194.5	-63.5797
194.6	-63.7772
194.7	-63.9752
194.8	-64.1736
194.9	-64.3724
195	-64.5716
195.1	-64.7712
195.2	-64.9712
195.3	-65.1715
195.4	-65.3722
195.5	-65.5731
195.6	-65.7743
195.7	-65.9757
195.8	-66.1773
195.9	-66.3791
196	-66.581
196.1	-66.7831
196.2	-66.9852
196.3	-67.1874
196.4	-67.3896
196.5	-67.5918
196.6	-67.794
196.7	-67.9961
196.8	-68.198
196.9	-68.3998
197	-68.6014
197.1	-68.8028
197.2	-69.0039
197.3	-69.2047
197.4	-69.4051
197.5	-69.6052
197.6	-69.8048
197.7	-70.0039
197.8	-70.2026
197.9	-70.4007
198	-70.5981
198.1	-70.795
198.2	-70.9911
198.3	-71.1865
198.4	-71.3812
198.5	-71.575
198.6	-71.768
198.7	-71.9601
198.8	-72.1512
198.9	-72.3414
199	-72.5305
199.1	-72.7185
199.2	-72.9055
199.3	-73.0913
199.4	-73.2758
199.5	-73.4592
199.6	-73.6413
199.7	-73.822
199.8	-74.0015
199.9	-74.1795
200	-74.3561
200.1	-74.5312
200.2	-74.7049
200.3	-74.877
200.4	-75.0476
200.5	-75.2165
200.6	-75.3839
200.7	-75.5496
200.8	-75.7136
200.9	-75.876
201	-76.0365
201.1	-76.1954
201.2	-76.3525
201.3	-76.5077
201.4	-76.6612
201.5	-76.8128
201.6	-76.9626
201.7	-77.1105
201.8	-77.2565
201.9	-77.4007
202	-77.5429
202.1	-77.6832
202.2	-77.8216
202.3	-77.9581
202.4	-78.0926
202.5	-78.2252
202.6	-78.3559
202.7	-78.4846
202.8	-78.6113
202.9	-78.7362
203	-78.859
203.1	-78.98
203.2	-79.099
203.3	-79.2161
203.4	-79.3312
203.5	-79.4444
203.6	-79.5558
203.7	-79.6652
203.8	-79.7728
203.9	-79.8784
204	-79.9823
204.1	-80.0842
204.2	-80.1843
204.3	-80.2827
204.4	-80.3792
204.5	-80.4739
204.6	-80.5668
204.7	-80.658
204.8	-80.7475
204.9	-80.8352
205	-80.9212
205.1	-81.0056
205.2	-81.0883
205.3	-81.1693
205.4	-81.2487
205.5	-81.3266
205.6	-81.4028
205.7	-81.4775
205.8	-81.5507
205.9	-81.6223
206	-81.6925
206.1	-81.7611
206.2	-81.8284
206.3	-81.8942
206.4	-81.9586
206.5	-82.0216
206.6	-82.0833
206.7	-82.1436
206.8	-82.2026
206.9	-82.2604
207	-82.3168
207.1	-82.372
207.2	-82.426
207.3	-82.4788
207.4	-82.5304
207.5	-82.5809
207.6	-82.6302
207.7	-82.6783
207.8	-82.7254
207.9	-82.7715
208	-82.8164
208.1	-82.8603
208.2	-82.9033
208.3	-82.9452
208.4	-82.9861
208.5	-83.0261
208.6	-83.0652
208.7	-83.1034
208.8	-83.1406
208.9	-83.177
209	-83.2125
209.1	-83.2472
209.2	-83.2811
209.3	-83.3141
209.4	-83.3464
209.5	-83.3779
209.6	-83.4086
209.7	-83.4386
209.8	-83.4679
209.9	-83.4965
210	-83.5244
210.1	-83.5516
210.2	-83.5782
210.3	-83.6041
210.4	-83.6294
210.5	-83.6541
210.6	-83.6781
210.7	-83.7016
210.8	-83.7245
210.9	-83.7469
211	-83.7687
211.1	-83.79
211.2	-83.8108
211.3	-83.831
211.4	-83.8508
211.5	-83.87
211.6	-83.8888
211.7	-83.9072
211.8	-83.9251
211.9	-83.9425
212	-83.9595
212.1	-83.9761
212.2	-83.9923
212.3	-84.0081
212.4	-84.0235
212.5	-84.0385
212.6	-84.0532
212.7	-84.0675
212.8	-84.0814
212.9	-84.095
213	-84.1083
213.1	-84.1212
213.2	-84.1339
213.3	-84.1462
213.4	-84.1582
213.5	-84.1699
213.6	-84.1813
213.7	-84.1925
213.8	-84.2033
213.9	-84.2139
214	-84.2243
214.1	-84.2344
214.2	-84.2442
214.3	-84.2538
214.4	-84.2632
214.5	-84.2724
214.6	-84.2813
214.7	-84.29
214.8	-84.2985
214.9	-84.3068
215	-84.3149
215.1	-84.3227
215.2	-84.3304
215.3	-84.338
215.4	-84.3453
215.5	-84.3525
215.6	-84.3594
215.7	-84.3663
215.8	-84.3729
215.9	-84.3794
216	-84.3858
216.1	-84.392
216.2	-84.398
216.3	-84.4039
216.4	-84.4097
216.5	-84.4153
216.6	-84.4208
216.7	-84.4262
216.8	-84.4314
216.9	-84.4366
217	-84.4416
217.1	-84.4465
217.2	-84.4512
217.3	-84.4559
217.4	-84.4605
217.5	-84.4649
217.6	-84.4693
217.7	-84.4736
217.8	-84.4777
217.9	-84.4818
218	-84.4858
218.1	-84.4897
218.2	-84.4935
218.3	-84.4972
218.4	-84.5008
218.5	-84.5044
218.6	-84.5079
218.7	-84.5113
218.8	-84.5146
218.9	-84.5179
219	-84.521
219.1	-84.5242
219.2	-84.5272
219.3	-84.5302
219.4	-84.5331
219.5	-84.536
219.6	-84.5388
219.7	-84.5416
219.8	-84.5443
219.9	-84.5469
220	-84.5495
220.1	-84.552
220.2	-84.5545
220.3	-84.557
220.4	-84.5593
220.5	-84.5617
220.6	-84.564
220.7	-84.5662
220.8	-84.5684
220.9	-84.5706
221	-84.5727
221.1	-84.5748
221.2	-84.5769
221.3	-84.5789
221.4	-84.5809
221.5	-84.5828
221.6	-84.5847
221.7	-84.5866
221.8	-84.5884
221.9	-84.5902
222	-84.592
222.1	-84.5937
222.2	-84.5954
222.3	-84.5971
222.4	-84.5988
222.5	-84.6004
222.6	-84.602
222.7	-84.6036
222.8	-84.6051
222.9	-84.6066
223	-84.6081
223.1	-84.6096
223.2	-84.6111
223.3	-84.6125
223.4	-84.6139
223.5	-84.6153
223.6	-84.6167
223.7	-84.618
223.8	-84.6194
223.9	-84.6207
224	-84.622
224.1	-84.6233
224.2	-84.6245
224.3	-84.6258
224.4	-84.627
224.5	-84.6282
224.6	-84.6294
224.7	-84.6306
224.8	-84.6317
224.9	-84.6329
225	-84.634
225.1	-84.6351
225.2	-84.6362
225.3	-84.6373
225.4	-84.6384
225.5	-84.6395
225.6	-84.6405
225.7	-84.6416
225.8	-84.6426
225.9	-84.6437
226	-84.6447
226.1	-84.6457
226.2	-84.6467
226.3	-84.6476
226.4	-84.6486
226.5	-84.6496
226.6	-84.6505
226.7	-84.6515
226.8	-84.6524
226.9	-84.6533
227	-84.6543
227.1	-84.6552
227.2	-84.6561
227.3	-84.657
227.4	-84.6578
227.5	-84.6587
227.6	-84.6596
227.7	-84.6605
227.8	-84.6613
227.9	-84.6622
228	-84.663
228.1	-84.6639
228.2	-84.6647
228.3	-84.6655
228.4	-84.6663
228.5	-84.6672
228.6	-84.668
228.7	-84.6688
228.8	-84.6696
228.9	-84.6704
229	-84.6711
229.1	-84.6719
229.2	-84.6727
229.3	-84.6735
229.4	-84.6743
229.5	-84.675
229.6	-84.6758
229.7	-84.6765
229.8	-84.6773
229.9	-84.678
230	-84.6788
230.1	-84.6795
230.2	-84.6803
230.3	-84.681
230.4	-84.6817
230.5	-84.6824
230.6	-84.6832
230.7	-84.6839
230.8	-84.6846
230.9	-84.6853
231	-84.686
231.1	-84.6867
231.2	-84.6874
231.3	-84.6881
231.4	-84.6888
231.5	-84.6895
231.6	-84.6902
231.7	-84.6909
231.8	-84.6916
231.9	-84.6923
232	-84.693
232.1	-84.6936
232.2	-84.6943
232.3	-84.695
232.4	-84.6957
232.5	-84.6963
232.6	-84.697
232.7	-84.6977
232.8	-84.6983
232.9	-84.699
233	-84.6996
233.1	-84.7003
233.2	-84.701
233.3	-84.7016
233.4	-84.7023
233.5	-84.7029
233.6	-84.7036
233.7	-84.7042
233.8	-84.7049
233.9	-84.7055
234	-84.7061
234.1	-84.7068
234.2	-84.7074
234.3	-84.7081
234.4	-84.7087
234.5	-84.7093
234.6	-84.71
234.7	-84.7106
234.8	-84.7112
234.9	-84.7118
235	-84.7125
235.1	-84.7131
235.2	-84.7137
235.3	-84.7143
235.4	-84.715
235.5	-84.7156
235.6	-84.7162
235.7	-84.7168
235.8	-84.7174
235.9	-84.7181
236	-84.7187
236.1	-84.7193
236.2	-84.7199
236.3	-84.7205
236.4	-84.7211
236.5	-84.7217
236.6	-84.7223
236.7	-84.723
236.8	-84.7236
236.9	-84.7242
237	-84.7248
237.1	-84.7254
237.2	-84.726
237.3	-84.7266
237.4	-84.7272
237.5	-84.7278
237.6	-84.7284
237.7	-84.729
237.8	-84.7296
237.9	-84.7302
238	-84.7308
238.1	-84.7314
238.2	-84.7319
238.3	-84.7325
238.4	-84.7331
238.5	-84.7337
238.6	-84.7343
238.7	-84.7349
238.8	-84.7355
238.9	-84.7361
239	-84.7367
239.1	-84.7373
239.2	-84.7378
239.3	-84.7384
239.4	-84.739
239.5	-84.7396
239.6	-84.7402
239.7	-84.7408
239.8	-84.7414
239.9	-84.7419
240	-84.7425
240.1	-84.7431
240.2	-84.7437
240.3	-84.7443
240.4	-84.7448
240.5	-84.7454
240.6	-84.746
240.7	-84.7466
240.8	-84.7471
240.9	-84.7477
241	-84.7483
241.1	-84.7489
241.2	-84.7494
241.3	-84.75
241.4	-84.7506
241.5	-84.7512
241.6	-84.7517
241.7	-84.7523
241.8	-84.7529
241.9	-84.7534
242	-84.754
242.1	-84.7546
242.2	-84.7551
242.3	-84.7557
242.4	-84.7563
242.5	-84.7568
242.6	-84.7574
242.7	-84.758
242.8	-84.7585
242.9	-84.7591
243	-84.7597
243.1	-84.7602
243.2	-84.7608
243.3	-84.7614
243.4	-84.7619
243.5	-84.7625
243.6	-84.763
243.7	-84.7636
243.8	-84.7642
243.9	-84.7647
244	-84.7653
244.1	-84.7658
244.2	-84.7664
244.3	-84.7669
244.4	-84.7675
244.5	-84.7681
244.6	-84.7686
244.7	-84.7692
244.8	-84.7697
244.9	-84.7703
245	-84.7708
245.1	-84.7714
245.2	-84.7719
245.3	-84.7725
245.4	-84.773
245.5	-84.7736
245.6	-84.7742
245.7	-84.7747
245.8	-84.7753
245.9	-84.7758
246	-84.7764
246.1	-84.7769
246.2	-84.7775
246.3	-84.778
246.4	-84.7785
246.5	-84.7791
246.6	-84.7796
246.7	-84.7802
246.8	-84.7807
246.9	-84.7813
247	-84.7818
247.1	-84.7824
247.2	-84.7829
247.3	-84.7835
247.4	-84.784
247.5	-84.7845
247.6	-84.7851
247.7	-84.7856
247.8	-84.7862
247.9	-84.7867
248	-84.7873
248.1	-84.7878
248.2	-84.7883
248.3	-84.7889
248.4	-84.7894
248.5	-84.79
248.6	-84.7905
248.7	-84.791
248.8	-84.7916
248.9	-84.7921
249	-84.7926
249.1	-84.7932
249.2	-84.7937
249.3	-84.7943
249.4	-84.7948
249.5	-84.7953
249.6	-84.7959
249.7	-84.7964
249.8	-84.7969
249.9	-84.7975
250	-84.798
250.1	-84.7985
250.2	-84.7991
250.3	-84.7996
250.4	-84.8001
250.5	-84.8007
250.6	-84.8012
250.7	-84.8017
250.8	-84.8023
250.9	-84.8028
251	-84.8033
251.1	-84.8038
251.2	-84.8044
251.3	-84.8049
251.4	-84.8054
251.5	-84.806
251.6	-84.8065
251.7	-84.807
251.8	-84.8075
251.9	-84.8081
252	-84.8086
252.1	-84.8091
252.2	-84.8096
252.3	-84.8102
252.4	-84.8107
252.5	-84.8112
252.6	-84.8117
252.7	-84.8123
252.8	-84.8128
252.9	-84.8133
253	-84.8138
253.1	-84.8143
253.2	-84.8149
253.3	-84.8154
253.4	-84.8159
253.5	-84.8164
253.6	-84.8169
253.7	-84.8175
253.8	-84.818
253.9	-84.8185
254	-84.819
254.1	-84.8195
254.2	-84.8201
254.3	-84.8206
254.4	-84.8211
254.5	-84.8216
254.6	-84.8221
254.7	-84.8226
254.8	-84.8232
254.9	-84.8237
255	-84.8242
255.1	-84.8247
255.2	-84.8252
255.3	-84.8257
255.4	-84.8262
255.5	-84.8268
255.6	-84.8273
255.7	-84.8278
255.8	-84.8283
255.9	-84.8288
256	-84.8293
256.1	-84.8298
256.2	-84.8303
256.3	-84.8308
256.4	-84.8314
256.5	-84.8319
256.6	-84.8324
256.7	-84.8329
256.8	-84.8334
256.9	-84.8339
257	-84.8344
257.1	-84.8349
257.2	-84.8354
257.3	-84.8359
257.4	-84.8364
257.5	-84.8369
257.6	-84.8375
257.7	-84.838
257.8	-84.8385
257.9	-84.839
258	-84.8395
258.1	-84.84
258.2	-84.8405
258.3	-84.841
258.4	-84.8415
258.5	-84.842
258.6	-84.8425
258.7	-84.843
258.8	-84.8435
258.9	-84.844
259	-84.8445
259.1	-84.845
259.2	-84.8455
259.3	-84.846
259.4	-84.8465
259.5	-84.847
259.6	-84.8475
259.7	-84.848
259.8	-84.8485
259.9	-84.849
260	-84.8495
260.1	-84.85
260.2	-84.8505
260.3	-84.851
260.4	-84.8515
260.5	-84.852
260.6	-84.8525
260.7	-84.853
260.8	-84.8535
260.9	-84.854
261	-84.8545
261.1	-84.8549
261.2	-84.8554
261.3	-84.8559
261.4	-84.8564
261.5	-84.8569
261.6	-84.8574
261.7	-84.8579
261.8	-84.8584
261.9	-84.8589
262	-84.8594
262.1	-84.8599
262.2	-84.8604
262.3	-84.8609
262.4	-84.8613
262.5	-84.8618
262.6	-84.8623
262.7	-84.8628
262.8	-84.8633
262.9	-84.8638
263	-84.8643
263.1	-84.8648
263.2	-84.8653
263.3	-84.8657
263.4	-84.8662
263.5	-84.8667
263.6	-84.8672
263.7	-84.8677
263.8	-84.8682
263.9	-84.8687
264	-84.8691
264.1	-84.8696
264.2	-84.8701
264.3	-84.8706
264.4	-84.8711
264.5	-84.8716
264.6	-84.872
264.7	-84.8725
264.8	-84.873
264.9	-84.8735
265	-84.874
265.1	-84.8745
265.2	-84.8749
265.3	-84.8754
265.4	-84.8759
265.5	-84.8764
265.6	-84.8769
265.7	-84.8773
265.8	-84.8778
265.9	-84.8783
266	-84.8788
266.1	-84.8793
266.2	-84.8797
266.3	-84.8802
266.4	-84.8807
266.5	-84.8812
266.6	-84.8816
266.7	-84.8821
266.8	-84.8826
266.9	-84.8831
267	-84.8835
267.1	-84.884
267.2	-84.8845
267.3	-84.885
267.4	-84.8854
267.5	-84.8859
267.6	-84.8864
267.7	-84.8869
267.8	-84.8873
267.9	-84.8878
268	-84.8883
268.1	-84.8888
268.2	-84.8892
268.3	-84.8897
268.4	-84.8902
268.5	-84.8906
268.6	-84.8911
268.7	-84.8916
268.8	-84.8921
268.9	-84.8925
269	-84.893
269.1	-84.8935
269.2	-84.8939
269.3	-84.8944
269.4	-84.8949
269.5	-84.8953
269.6	-84.8958
269.7	-84.8963
269.8	-84.8967
269.9	-84.8972
270	-84.8977
270.1	-84.8981
270.2	-84.8986
270.3	-84.8991
270.4	-84.8995
270.5	-84.9
270.6	-84.9005
270.7	-84.9009
270.8	-84.9014
270.9	-84.9019
271	-84.9023
271.1	-84.9028
271.2	-84.9033
271.3	-84.9037
271.4	-84.9042
271.5	-84.9046
271.6	-84.9051
271.7	-84.9056
271.8	-84.906
271.9	-84.9065
272	-84.9069
272.1	-84.9074
272.2	-84.9079
272.3	-84.9083
272.4	-84.9088
272.5	-84.9092
272.6	-84.9097
272.7	-84.9102
272.8	-84.9106
272.9	-84.9111
273	-84.9115
273.1	-84.912
273.2	-84.9125
273.3	-84.9129
273.4	-84.9134
273.5	-84.9138
273.6	-84.9143
273.7	-84.9147
273.8	-84.9152
273.9	-84.9156
274	-84.9161
274.1	-84.9166
274.2	-84.917
274.3	-84.9175
274.4	-84.9179
274.5	-84.9184
274.6	-84.9188
274.7	-84.9193
274.8	-84.9197
274.9	-84.9202
275	-84.9206
275.1	-84.9211
275.2	-84.9215
275.3	-84.922
275.4	-84.9224
275.5	-84.9229
275.6	-84.9233
275.7	-84.9238
275.8	-84.9242
275.9	-84.9247
276	-84.9251
276.1	-84.9256
276.2	-84.926
276.3	-84.9265
276.4	-84.9269
276.5	-84.9274
276.6	-84.9278
276.7	-84.9283
276.8	-84.9287
276.9	-84.9292
277	-84.9296
277.1	-84.9301
277.2	-84.9305
277.3	-84.931
277.4	-84.9314
277.5	-84.9319
277.6	-84.9323
277.7	-84.9327
277.8	-84.9332
277.9	-84.9336
278	-84.9341
278.1	-84.9345
278.2	-84.935
278.3	-84.9354
278.4	-84.9359
278.5	-84.9363
278.6	-84.9367
278.7	-84.9372
278.8	-84.9376
278.9	-84.9381
279	-84.9385
279.1	-84.9389
279.2	-84.9394
279.3	-84.9398
279.4	-84.9403
279.5	-84.9407
279.6	-84.9411
279.7	-84.9416
279.8	-84.942
279.9	-84.9425
280	-84.9429
280.1	-84.9433
280.2	-84.9438
280.3	-84.9442
280.4	-84.9447
280.5	-84.9451
280.6	-84.9455
280.7	-84.946
280.8	-84.9464
280.9	-84.9468
281	-84.9473
281.1	-84.9477
281.2	-84.9481
281.3	-84.9486
281.4	-84.949
281.5	-84.9495
281.6	-84.9499
281.7	-84.9503
281.8	-84.9508
281.9	-84.9512
282	-84.9516
282.1	-84.9521
282.2	-84.9525
282.3	-84.9529
282.4	-84.9534
282.5	-84.9538
282.6	-84.9542
282.7	-84.9546
282.8	-84.9551
282.9	-84.9555
283	-84.9559
283.1	-84.9564
283.2	-84.9568
283.3	-84.9572
283.4	-84.9577
283.5	-84.9581
283.6	-84.9585
283.7	-84.9589
283.8	-84.9594
283.9	-84.9598
284	-84.9602
284.1	-84.9607
284.2	-84.9611
284.3	-84.9615
284.4	-84.9619
284.5	-84.9624
284.6	-84.9628
284.7	-84.9632
284.8	-84.9637
284.9	-84.9641
285	-84.9645
285.1	-84.9649
285.2	-84.9654
285.3	-84.9658
285.4	-84.9662
285.5	-84.9666
285.6	-84.967
285.7	-84.9675
285.8	-84.9679
285.9	-84.9683
286	-84.9687
286.1	-84.9692
286.2	-84.9696
286.3	-84.97
286.4	-84.9704
286.5	-84.9709
286.6	-84.9713
286.7	-84.9717
286.8	-84.9721
286.9	-84.9725
287	-84.973
287.1	-84.9734
287.2	-84.9738
287.3	-84.9742
287.4	-84.9746
287.5	-84.9751
287.6	-84.9755
287.7	-84.9759
287.8	-84.9763
287.9	-84.9767
288	-84.9772
288.1	-84.9776
288.2	-84.978
288.3	-84.9784
288.4	-84.9788
288.5	-84.9792
288.6	-84.9797
288.7	-84.9801
288.8	-84.9805
288.9	-84.9809
289	-84.9813
289.1	-84.9817
289.2	-84.9821
289.3	-84.9826
289.4	-84.983
289.5	-84.9834
289.6	-84.9838
289.7	-84.9842
289.8	-84.9846
289.9	-84.985
290	-84.9855
290.1	-84.9859
290.2	-84.9863
290.3	-84.9867
290.4	-84.9871
290.5	-84.9875
290.6	-84.9879
290.7	-84.9883
290.8	-84.9888
290.9	-84.9892
291	-84.9896
291.1	-84.99
291.2	-84.9904
291.3	-84.9908
291.4	-84.9912
291.5	-84.9916
291.6	-84.992
291.7	-84.9924
291.8	-84.9929
291.9	-84.9933
292	-84.9937
292.1	-84.9941
292.2	-84.9945
292.3	-84.9949
292.4	-84.9953
292.5	-84.9957
292.6	-84.9961
292.7	-84.9965
292.8	-84.9969
292.9	-84.9973
293	-84.9977
293.1	-84.9981
293.2	-84.9986
293.3	-84.999
293.4	-84.9994
293.5	-84.9998
293.6	-85.0002
293.7	-85.0006
293.8	-85.001
293.9	-85.0014
294	-85.0018
294.1	-85.0022
294.2	-85.0026
294.3	-85.003
294.4	-85.0034
294.5	-85.0038
294.6	-85.0042
294.7	-85.0046
294.8	-85.005
294.9	-85.0054
295	-85.0058
295.1	-85.0062
295.2	-85.0066
295.3	-85.007
295.4	-85.0074
295.5	-85.0078
295.6	-85.0082
295.7	-85.0086
295.8	-85.009
295.9	-85.0094
296	-85.0098
296.1	-85.0102
296.2	-85.0106
296.3	-85.011
296.4	-85.0114
296.5	-85.0118
296.6	-85.0122
296.7	-85.0126
296.8	-85.013
296.9	-85.0134
297	-85.0138
297.1	-85.0142
297.2	-85.0146
297.3	-85.015
297.4	-85.0154
297.5	-85.0158
297.6	-85.0162
297.7	-85.0165
297.8	-85.0169
297.9	-85.0173
298	-85.0177
298.1	-85.0181
298.2	-85.0185
298.3	-85.0189
298.4	-85.0193
298.5	-85.0197
298.6	-85.0201
298.7	-85.0205
298.8	-85.0209
298.9	-85.0213
299	-85.0217
299.1	-85.0221
299.2	-85.0224
299.3	-85.0228
299.4	-85.0232
299.5	-85.0236
299.6	-85.024
299.7	-85.0244
299.8	-85.0248
299.9	-85.0252
300	-85.0256
300.1	-85.026
300.2	-85.0263
300.3	-85.0267
300.4	-85.0271
300.5	-85.0275
300.6	-85.0279
300.7	-85.0283
300.8	-85.0287
300.9	-85.0291
301	-85.0294
301.1	-85.0298
301.2	-85.0302
301.3	-85.0306
301.4	-85.031
301.5	-85.0314
301.6	-85.0318
301.7	-85.0322
301.8	-85.0325
301.9	-85.0329
302	-85.0333
302.1	-85.0337
302.2	-85.0341
302.3	-85.0345
302.4	-85.0348
302.5	-85.0352
302.6	-85.0356
302.7	-85.036
302.8	-85.0364
302.9	-85.0368
303	-85.0371
303.1	-85.0375
303.2	-85.0379
303.3	-85.0383
303.4	-85.0387
303.5	-85.0391
303.6	-85.0394
303.7	-85.0398
303.8	-85.0402
303.9	-85.0406
304	-85.041
304.1	-85.0413
304.2	-85.0417
304.3	-85.0421
304.4	-85.0425
304.5	-85.0429
304.6	-85.0432
304.7	-85.0436
304.8	-85.044
304.9	-85.0444
305	-85.0448
305.1	-85.0451
305.2	-85.0455
305.3	-85.0459
305.4	-85.0463
305.5	-85.0466
305.6	-85.047
305.7	-85.0474
305.8	-85.0478
305.9	-85.0482
306	-85.0485
306.1	-85.0489
306.2	-85.0493
306.3	-85.0497
306.4	-85.05
306.5	-85.0504
306.6	-85.0508
306.7	-85.0512
306.8	-85.0515
306.9	-85.0519
307	-85.0523
307.1	-85.0527
307.2	-85.053
307.3	-85.0534
307.4	-85.0538
307.5	-85.0542
307.6	-85.0545
307.7	-85.0549
307.8	-85.0553
307.9	-85.0556
308	-85.056
308.1	-85.0564
308.2	-85.0568
308.3	-85.0571
308.4	-85.0575
308.5	-85.0579
308.6	-85.0582
308.7	-85.0586
308.8	-85.059
308.9	-85.0594
309	-85.0597
309.1	-85.0601
309.2	-85.0605
309.3	-85.0608
309.4	-85.0612
309.5	-85.0616
309.6	-85.0619
309.7	-85.0623
309.8	-85.0627
309.9	-85.063
310	-85.0634
310.1	-85.0638
310.2	-85.0641
310.3	-85.0645
310.4	-85.0649
310.5	-85.0652
310.6	-85.0656
310.7	-85.066
310.8	-85.0663
310.9	-85.0667
311	-85.0671
311.1	-85.0674
311.2	-85.0678
311.3	-85.0682
311.4	-85.0685
311.5	-85.0689
311.6	-85.0693
311.7	-85.0696
311.8	-85.07
311.9	-85.0704
312	-85.0707
312.1	-85.0711
312.2	-85.0715
312.3	-85.0718
312.4	-85.0722
312.5	-85.0725
312.6	-85.0729
312.7	-85.0733
312.8	-85.0736
312.9	-85.074
313	-85.0743
313.1	-85.0747
313.2	-85.0751
313.3	-85.0754
313.4	-85.0758
313.5	-85.0762
313.6	-85.0765
313.7	-85.0769
313.8	-85.0772
313.9	-85.0776
314	-85.078
314.1	-85.0783
314.2	-85.0787
314.3	-85.079
314.4	-85.0794
314.5	-85.0797
314.6	-85.0801
314.7	-85.0805
314.8	-85.0808
314.9	-85.0812
315	-85.0815
315.1	-85.0819
315.2	-85.0823
315.3	-85.0826
315.4	-85.083
315.5	-85.0833
315.6	-85.0837
315.7	-85.084
315.8	-85.0844
315.9	-85.0847
316	-85.0851
316.1	-85.0855
316.2	-85.0858
316.3	-85.0862
316.4	-85.0865
316.5	-85.0869
316.6	-85.0872
316.7	-85.0876
316.8	-85.0879
316.9	-85.0883
317	-85.0886
317.1	-85.089
317.2	-85.0894
317.3	-85.0897
317.4	-85.0901
317.5	-85.0904
317.6	-85.0908
317.7	-85.0911
317.8	-85.0915
317.9	-85.0918
318	-85.0922
318.1	-85.0925
318.2	-85.0929
318.3	-85.0932
318.4	-85.0936
318.5	-85.0939
318.6	-85.0943
318.7	-85.0946
318.8	-85.095
318.9	-85.0953
319	-85.0957
319.1	-85.096
319.2	-85.0964
319.3	-85.0967
319.4	-85.0971
319.5	-85.0974
319.6	-85.0978
319.7	-85.0981
319.8	-85.0985
319.9	-85.0988
320	-85.0992
320.1	-85.0995
320.2	-85.0999
320.3	-85.1002
320.4	-85.1006
320.5	-85.1009
320.6	-85.1012
320.7	-85.1016
320.8	-85.1019
320.9	-85.1023
321	-85.1026
321.1	-85.103
321.2	-85.1033
321.3	-85.1037
321.4	-85.104
321.5	-85.1044
321.6	-85.1047
321.7	-85.105
321.8	-85.1054
321.9	-85.1057
322	-85.1061
322.1	-85.1064
322.2	-85.1068
322.3	-85.1071
322.4	-85.1074
322.5	-85.1078
322.6	-85.1081
322.7	-85.1085
322.8	-85.1088
322.9	-85.1092
323	-85.1095
323.1	-85.1098
323.2	-85.1102
323.3	-85.1105
323.4	-85.1109
323.5	-85.1112
323.6	-85.1115
323.7	-85.1119
323.8	-85.1122
323.9	-85.1126
324	-85.1129
324.1	-85.1133
324.2	-85.1136
324.3	-85.1139
324.4	-85.1143
324.5	-85.1146
324.6	-85.1149
324.7	-85.1153
324.8	-85.1156
324.9	-85.116
325	-85.1163
325.1	-85.1166
325.2	-85.117
325.3	-85.1173
325.4	-85.1177
325.5	-85.118
325.6	-85.1183
325.7	-85.1187
325.8	-85.119
325.9	-85.1193
326	-85.1197
326.1	-85.12
326.2	-85.1203
326.3	-85.1207
326.4	-85.121
326.5	-85.1213
326.6	-85.1217
326.7	-85.122
326.8	-85.1224
326.9	-85.1227
327	-85.123
327.1	-85.1234
327.2	-85.1237
327.3	-85.124
327.4	-85.1244
327.5	-85.1247
327.6	-85.125
327.7	-85.1254
327.8	-85.1257
327.9	-85.126
328	-85.1264
328.1	-85.1267
328.2	-85.127
328.3	-85.1274
328.4	-85.1277
328.5	-85.128
328.6	-85.1283
328.7	-85.1287
328.8	-85.129
328.9	-85.1293
329	-85.1297
329.1	-85.13
329.2	-85.1303
329.3	-85.1307
329.4	-85.131
329.5	-85.1313
329.6	-85.1317
329.7	-85.132
329.8	-85.1323
329.9	-85.1326
330	-85.133
330.1	-85.1333
330.2	-85.1336
330.3	-85.134
330.4	-85.1343
330.5	-85.1346
330.6	-85.1349
330.7	-85.1353
330.8	-85.1356
330.9	-85.1359
331	-85.1362
331.1	-85.1366
331.2	-85.1369
331.3	-85.1372
331.4	-85.1376
331.5	-85.1379
331.6	-85.1382
331.7	-85.1385
331.8	-85.1389
331.9	-85.1392
332	-85.1395
332.1	-85.1398
332.2	-85.1402
332.3	-85.1405
332.4	-85.1408
332.5	-85.1411
332.6	-85.1415
332.7	-85.1418
332.8	-85.1421
332.9	-85.1424
333	-85.1427
333.1	-85.1431
333.2	-85.1434
333.3	-85.1437
333.4	-85.144
333.5	-85.1444
333.6	-85.1447
333.7	-85.145
333.8	-85.1453
333.9	-85.1457
334	-85.146
334.1	-85.1463
334.2	-85.1466
334.3	-85.1469
334.4	-85.1473
334.5	-85.1476
334.6	-85.1479
334.7	-85.1482
334.8	-85.1485
334.9	-85.1489
335	-85.1492
335.1	-85.1495
335.2	-85.1498
335.3	-85.1501
335.4	-85.1505
335.5	-85.1508
335.6	-85.1511
335.7	-85.1514
335.8	-85.1517
335.9	-85.1521
336	-85.1524
336.1	-85.1527
336.2	-85.153
336.3	-85.1533
336.4	-85.1536
336.5	-85.154
336.6	-85.1543
336.7	-85.1546
336.8	-85.1549
336.9	-85.1552
337	-85.1555
337.1	-85.1559
337.2	-85.1562
337.3	-85.1565
337.4	-85.1568
337.5	-85.1571
337.6	-85.1574
337.7	-85.1578
337.8	-85.1581
337.9	-85.1584
338	-85.1587
338.1	-85.159
338.2	-85.1593
338.3	-85.1596
338.4	-85.16
338.5	-85.1603
338.6	-85.1606
338.7	-85.1609
338.8	-85.1612
338.9	-85.1615
339	-85.1618
339.1	-85.1621
339.2	-85.1625
339.3	-85.1628
339.4	-85.1631
339.5	-85.1634
339.6	-85.1637
339.7	-85.164
339.8	-85.1643
339.9	-85.1646
340	-85.165
340.1	-85.1653
340.2	-85.1656
340.3	-85.1659
340.4	-85.1662
340.5	-85.1665
340.6	-85.1668
340.7	-85.1671
340.8	-85.1674
340.9	-85.1677
341	-85.1681
341.1	-85.1684
341.2	-85.1687
341.3	-85.169
341.4	-85.1693
341.5	-85.1696
341.6	-85.1699
341.7	-85.1702
341.8	-85.1705
341.9	-85.1708
342	-85.1711
342.1	-85.1714
342.2	-85.1718
342.3	-85.1721
342.4	-85.1724
342.5	-85.1727
342.6	-85.173
342.7	-85.1733
342.8	-85.1736
342.9	-85.1739
343	-85.1742
343.1	-85.1745
343.2	-85.1748
343.3	-85.1751
343.4	-85.1754
343.5	-85.1757
343.6	-85.176
343.7	-85.1764
343.8	-85.1767
343.9	-85.177
344	-85.1773
344.1	-85.1776
344.2	-85.1779
344.3	-85.1782
344.4	-85.1785
344.5	-85.1788
344.6	-85.1791
344.7	-85.1794
344.8	-85.1797
344.9	-85.18
345	-85.1803
345.1	-85.1806
345.2	-85.1809
345.3	-85.1812
345.4	-85.1815
345.5	-85.1818
345.6	-85.1821
345.7	-85.1824
345.8	-85.1827
345.9	-85.183
346	-85.1833
346.1	-85.1836
346.2	-85.1839
346.3	-85.1842
346.4	-85.1845
346.5	-85.1848
346.6	-85.1851
346.7	-85.1854
346.8	-85.1857
346.9	-85.186
347	-85.1863
347.1	-85.1866
347.2	-85.1869
347.3	-85.1872
347.4	-85.1875
347.5	-85.1878
347.6	-85.1881
347.7	-85.1884
347.8	-85.1887
347.9	-85.189
348	-85.1893
348.1	-85.1896
348.2	-85.1899
348.3	-85.1902
348.4	-85.1905
348.5	-85.1908
348.6	-85.1911
348.7	-85.1914
348.8	-85.1917
348.9	-85.192
349	-85.1923
349.1	-85.1926
349.2	-85.1929
349.3	-85.1932
349.4	-85.1935
349.5	-85.1938
349.6	-85.1941
349.7	-85.1944
349.8	-85.1946
349.9	-85.1949
350	-85.1952
350.1	-85.1955
350.2	-85.1958
350.3	-85.1961
350.4	-85.1964
350.5	-85.1967
350.6	-85.197
350.7	-85.1973
350.8	-85.1976
350.9	-85.1979
351	-85.1982
351.1	-85.1985
351.2	-85.1988
351.3	-85.1991
351.4	-85.1993
351.5	-85.1996
351.6	-85.1999
351.7	-85.2002
351.8	-85.2005
351.9	-85.2008
352	-85.2011
352.1	-85.2014
352.2	-85.2017
352.3	-85.202
352.4	-85.2023
352.5	-85.2026
352.6	-85.2028
352.7	-85.2031
352.8	-85.2034
352.9	-85.2037
353	-85.204
353.1	-85.2043
353.2	-85.2046
353.3	-85.2049
353.4	-85.2052
353.5	-85.2055
353.6	-85.2057
353.7	-85.206
353.8	-85.2063
353.9	-85.2066
354	-85.2069
354.1	-85.2072
354.2	-85.2075
354.3	-85.2078
354.4	-85.2081
354.5	-85.2083
354.6	-85.2086
354.7	-85.2089
354.8	-85.2092
354.9	-85.2095
355	-85.2098
355.1	-85.2101
355.2	-85.2104
355.3	-85.2106
355.4	-85.2109
355.5	-85.2112
355.6	-85.2115
355.7	-85.2118
355.8	-85.2121
355.9	-85.2124
356	-85.2126
356.1	-85.2129
356.2	-85.2132
356.3	-85.2135
356.4	-85.2138
356.5	-85.2141
356.6	-85.2143
356.7	-85.2146
356.8	-85.2149
356.9	-85.2152
357	-85.2155
357.1	-85.2158
357.2	-85.2161
357.3	-85.2163
357.4	-85.2166
357.5	-85.2169
357.6	-85.2172
357.7	-85.2175
357.8	-85.2178
357.9	-85.218
358	-85.2183
358.1	-85.2186
358.2	-85.2189
358.3	-85.2192
358.4	-85.2194
358.5	-85.2197
358.6	-85.22
358.7	-85.2203
358.8	-85.2206
358.9	-85.2208
359	-85.2211
359.1	-85.2214
359.2	-85.2217
359.3	-85.222
359.4	-85.2223
359.5	-85.2225
359.6	-85.2228
359.7	-85.2231
359.8	-85.2234
359.9	-85.2237
360	-85.2239
360.1	-85.2242
360.2	-85.2245
360.3	-85.2248
360.4	-85.225
360.5	-85.2253
360.6	-85.2256
360.7	-85.2259
360.8	-85.2262
360.9	-85.2264
361	-85.2267
361.1	-85.227
361.2	-85.2273
361.3	-85.2275
361.4	-85.2278
361.5	-85.2281
361.6	-85.2284
361.7	-85.2287
361.8	-85.2289
361.9	-85.2292
362	-85.2295
362.1	-85.2298
362.2	-85.23
362.3	-85.2303
362.4	-85.2306
362.5	-85.2309
362.6	-85.2311
362.7	-85.2314
362.8	-85.2317
362.9	-85.232
363	-85.2322
363.1	-85.2325
363.2	-85.2328
363.3	-85.2331
363.4	-85.2333
363.5	-85.2336
363.6	-85.2339
363.7	-85.2342
363.8	-85.2344
363.9	-85.2347
364	-85.235
364.1	-85.2353
364.2	-85.2355
364.3	-85.2358
364.4	-85.2361
364.5	-85.2364
364.6	-85.2366
364.7	-85.2369
364.8	-85.2372
364.9	-85.2374
365	-85.2377
365.1	-85.238
365.2	-85.2383
365.3	-85.2385
365.4	-85.2388
365.5	-85.2391
365.6	-85.2393
365.7	-85.2396
365.8	-85.2399
365.9	-85.2402
366	-85.2404
366.1	-85.2407
366.2	-85.241
366.3	-85.2412
366.4	-85.2415
366.5	-85.2418
366.6	-85.242
366.7	-85.2423
366.8	-85.2426
366.9	-85.2429
367	-85.2431
367.1	-85.2434
367.2	-85.2437
367.3	-85.2439
367.4	-85.2442
367.5	-85.2445
367.6	-85.2447
367.7	-85.245
367.8	-85.2453
367.9	-85.2455
368	-85.2458
368.1	-85.2461
368.2	-85.2463
368.3	-85.2466
368.4	-85.2469
368.5	-85.2471
368.6	-85.2474
368.7	-85.2477
368.8	-85.2479
368.9	-85.2482
369	-85.2485
369.1	-85.2487
369.2	-85.249
369.3	-85.2493
369.4	-85.2495
369.5	-85.2498
369.6	-85.2501
369.7	-85.2503
369.8	-85.2506
369.9	-85.2509
370	-85.2511
370.1	-85.2514
370.2	-85.2517
370.3	-85.2519
370.4	-85.2522
370.5	-85.2525
370.6	-85.2527
370.7	-85.253
370.8	-85.2532
370.9	-85.2535
371	-85.2538
371.1	-85.254
371.2	-85.2543
371.3	-85.2546
371.4	-85.2548
371.5	-85.2551
371.6	-85.2553
371.7	-85.2556
371.8	-85.2559
371.9	-85.2561
372	-85.2564
372.1	-85.2567
372.2	-85.2569
372.3	-85.2572
372.4	-85.2574
372.5	-85.2577
372.6	-85.258
372.7	-85.2582
372.8	-85.2585
372.9	-85.2588
373	-85.259
373.1	-85.2593
373.2	-85.2595
373.3	-85.2598
373.4	-85.2601
373.5	-85.2603
373.6	-85.2606
373.7	-85.2608
373.8	-85.2611
373.9	-85.2614
374	-85.2616
374.1	-85.2619
374.2	-85.2621
374.3	-85.2624
374.4	-85.2626
374.5	-85.2629
374.6	-85.2632
374.7	-85.2634
374.8	-85.2637
374.9	-85.2639
375	-85.2642
375.1	-85.2645
375.2	-85.2647
375.3	-85.265
375.4	-85.2652
375.5	-85.2655
375.6	-85.2657
375.7	-85.266
375.8	-85.2663
375.9	-85.2665
376	-85.2668
376.1	-85.267
376.2	-85.2673
376.3	-85.2675
376.4	-85.2678
376.5	-85.2681
376.6	-85.2683
376.7	-85.2686
376.8	-85.2688
376.9	-85.2691
377	-85.2693
377.1	-85.2696
377.2	-85.2698
377.3	-85.2701
377.4	-85.2703
377.5	-85.2706
377.6	-85.2709
377.7	-85.2711
377.8	-85.2714
377.9	-85.2716
378	-85.2719
378.1	-85.2721
378.2	-85.2724
378.3	-85.2726
378.4	-85.2729
378.5	-85.2731
378.6	-85.2734
378.7	-85.2736
378.8	-85.2739
378.9	-85.2742
379	-85.2744
379.1	-85.2747
379.2	-85.2749
379.3	-85.2752
379.4	-85.2754
379.5	-85.2757
379.6	-85.2759
379.7	-85.2762
379.8	-85.2764
379.9	-85.2767
380	-85.2769
380.1	-85.2772
380.2	-85.2774
380.3	-85.2777
380.4	-85.2779
380.5	-85.2782
380.6	-85.2784
380.7	-85.2787
380.8	-85.2789
380.9	-85.2792
381	-85.2794
381.1	-85.2797
381.2	-85.2799
381.3	-85.2802
381.4	-85.2804
381.5	-85.2807
381.6	-85.2809
381.7	-85.2812
381.8	-85.2814
381.9	-85.2817
382	-85.2819
382.1	-85.2822
382.2	-85.2824
382.3	-85.2827
382.4	-85.2829
382.5	-85.2832
382.6	-85.2834
382.7	-85.2837
382.8	-85.2839
382.9	-85.2842
383	-85.2844
383.1	-85.2847
383.2	-85.2849
383.3	-85.2851
383.4	-85.2854
383.5	-85.2856
383.6	-85.2859
383.7	-85.2861
383.8	-85.2864
383.9	-85.2866
384	-85.2869
384.1	-85.2871
384.2	-85.2874
384.3	-85.2876
384.4	-85.2879
384.5	-85.2881
384.6	-85.2883
384.7	-85.2886
384.8	-85.2888
384.9	-85.2891
385	-85.2893
385.1	-85.2896
385.2	-85.2898
385.3	-85.2901
385.4	-85.2903
385.5	-85.2905
385.6	-85.2908
385.7	-85.291
385.8	-85.2913
385.9	-85.2915
386	-85.2918
386.1	-85.292
386.2	-85.2923
386.3	-85.2925
386.4	-85.2927
386.5	-85.293
386.6	-85.2932
386.7	-85.2935
386.8	-85.2937
386.9	-85.294
387	-85.2942
387.1	-85.2944
387.2	-85.2947
387.3	-85.2949
387.4	-85.2952
387.5	-85.2954
387.6	-85.2956
387.7	-85.2959
387.8	-85.2961
387.9	-85.2964
388	-85.2966
388.1	-85.2969
388.2	-85.2971
388.3	-85.2973
388.4	-85.2976
388.5	-85.2978
388.6	-85.2981
388.7	-85.2983
388.8	-85.2985
388.9	-85.2988
389	-85.299
389.1	-85.2993
389.2	-85.2995
389.3	-85.2997
389.4	-85.3
389.5	-85.3002
389.6	-85.3004
389.7	-85.3007
389.8	-85.3009
389.9	-85.3012
390	-85.3014
390.1	-85.3016
390.2	-85.3019
390.3	-85.3021
390.4	-85.3024
390.5	-85.3026
390.6	-85.3028
390.7	-85.3031
390.8	-85.3033
390.9	-85.3035
391	-85.3038
391.1	-85.304
391.2	-85.3043
391.3	-85.3045
391.4	-85.3047
391.5	-85.305
391.6	-85.3052
391.7	-85.3054
391.8	-85.3057
391.9	-85.3059
392	-85.3061
392.1	-85.3064
392.2	-85.3066
392.3	-85.3069
392.4	-85.3071
392.5	-85.3073
392.6	-85.3076
392.7	-85.3078
392.8	-85.308
392.9	-85.3083
393	-85.3085
393.1	-85.3087
393.2	-85.309
393.3	-85.3092
393.4	-85.3094
393.5	-85.3097
393.6	-85.3099
393.7	-85.3101
393.8	-85.3104
393.9	-85.3106
394	-85.3108
394.1	-85.3111
394.2	-85.3113
394.3	-85.3115
394.4	-85.3118
394.5	-85.312
394.6	-85.3122
394.7	-85.3125
394.8	-85.3127
394.9	-85.3129
395	-85.3132
395.1	-85.3134
395.2	-85.3136
395.3	-85.3139
395.4	-85.3141
395.5	-85.3143
395.6	-85.3146
395.7	-85.3148
395.8	-85.315
395.9	-85.3153
396	-85.3155
396.1	-85.3157
396.2	-85.316
396.3	-85.3162
396.4	-85.3164
396.5	-85.3166
396.6	-85.3169
396.7	-85.3171
396.8	-85.3173
396.9	-85.3176
397	-85.3178
397.1	-85.318
397.2	-85.3183
397.3	-85.3185
397.4	-85.3187
397.5	-85.3189
397.6	-85.3192
397.7	-85.3194
397.8	-85.3196
397.9	-85.3199
398	-85.3201
398.1	-85.3203
398.2	-85.3205
398.3	-85.3208
398.4	-85.321
398.5	-85.3212
398.6	-85.3215
398.7	-85.3217
398.8	-85.3219
398.9	-85.3221
399	-85.3224
399.1	-85.3226
399.2	-85.3228
399.3	-85.3231
399.4	-85.3233
399.5	-85.3235
399.6	-85.3237
399.7	-85.324
399.8	-85.3242
399.9	-85.3244
400	-85.3246
400.1	-85.3249
400.2	-85.3251
400.3	-85.3253
400.4	-85.3255
400.5	-85.3258
400.6	-85.326
400.7	-85.3262
400.8	-85.3264
400.9	-85.3267
401	-85.3269
401.1	-85.3271
401.2	-85.3273
401.3	-85.3276
401.4	-85.3278
401.5	-85.328
401.6	-85.3282
401.7	-85.3285
401.8	-85.3287
401.9	-85.3289
402	-85.3291
402.1	-85.3294
402.2	-85.3296
402.3	-85.3298
402.4	-85.33
402.5	-85.3303
402.6	-85.3305
402.7	-85.3307
402.8	-85.3309
402.9	-85.3312
403	-85.3314
403.1	-85.3316
403.2	-85.3318
403.3	-85.332
403.4	-85.3323
403.5	-85.3325
403.6	-85.3327
403.7	-85.3329
403.8	-85.3332
403.9	-85.3334
404	-85.3336
404.1	-85.3338
404.2	-85.334
404.3	-85.3343
404.4	-85.3345
404.5	-85.3347
404.6	-85.3349
404.7	-85.3352
404.8	-85.3354
404.9	-85.3356
405	-85.3358
405.1	-85.336
405.2	-85.3363
405.3	-85.3365
405.4	-85.3367
405.5	-85.3369
405.6	-85.3371
405.7	-85.3374
405.8	-85.3376
405.9	-85.3378
406	-85.338
406.1	-85.3382
406.2	-85.3385
406.3	-85.3387
406.4	-85.3389
406.5	-85.3391
406.6	-85.3393
406.7	-85.3396
406.8	-85.3398
406.9	-85.34
407	-85.3402
407.1	-85.3404
407.2	-85.3406
407.3	-85.3409
407.4	-85.3411
407.5	-85.3413
407.6	-85.3415
407.7	-85.3417
407.8	-85.342
407.9	-85.3422
408	-85.3424
408.1	-85.3426
408.2	-85.3428
408.3	-85.343
408.4	-85.3433
408.5	-85.3435
408.6	-85.3437
408.7	-85.3439
408.8	-85.3441
408.9	-85.3443
409	-85.3446
409.1	-85.3448
409.2	-85.345
409.3	-85.3452
409.4	-85.3454
409.5	-85.3456
409.6	-85.3458
409.7	-85.3461
409.8	-85.3463
409.9	-85.3465
410	-85.3467
410.1	-85.3469
410.2	-85.3471
410.3	-85.3474
410.4	-85.3476
410.5	-85.3478
410.6	-85.348
410.7	-85.3482
410.8	-85.3484
410.9	-85.3486
411	-85.3489
411.1	-85.3491
411.2	-85.3493
411.3	-85.3495
411.4	-85.3497
411.5	-85.3499
411.6	-85.3501
411.7	-85.3503
411.8	-85.3506
411.9	-85.3508
412	-85.351
412.1	-85.3512
412.2	-85.3514
412.3	-85.3516
412.4	-85.3518
412.5	-85.3521
412.6	-85.3523
412.7	-85.3525
412.8	-85.3527
412.9	-85.3529
413	-85.3531
413.1	-85.3533
413.2	-85.3535
413.3	-85.3537
413.4	-85.354
413.5	-85.3542
413.6	-85.3544
413.7	-85.3546
413.8	-85.3548
413.9	-85.355
414	-85.3552
414.1	-85.3554
414.2	-85.3556
414.3	-85.3559
414.4	-85.3561
414.5	-85.3563
414.6	-85.3565
414.7	-85.3567
414.8	-85.3569
414.9	-85.3571
415	-85.3573
415.1	-85.3575
415.2	-85.3577
415.3	-85.358
415.4	-85.3582
415.5	-85.3584
415.6	-85.3586
415.7	-85.3588
415.8	-85.359
415.9	-85.3592
416	-85.3594
416.1	-85.3596
416.2	-85.3598
416.3	-85.36
416.4	-85.3603
416.5	-85.3605
416.6	-85.3607
416.7	-85.3609
416.8	-85.3611
416.9	-85.3613
417	-85.3615
417.1	-85.3617
417.2	-85.3619
417.3	-85.3621
417.4	-85.3623
417.5	-85.3625
417.6	-85.3627
417.7	-85.3629
417.8	-85.3632
417.9	-85.3634
418	-85.3636
418.1	-85.3638
418.2	-85.364
418.3	-85.3642
418.4	-85.3644
418.5	-85.3646
418.6	-85.3648
418.7	-85.365
418.8	-85.3652
418.9	-85.3654
419	-85.3656
419.1	-85.3658
419.2	-85.366
419.3	-85.3662
419.4	-85.3664
419.5	-85.3667
419.6	-85.3669
419.7	-85.3671
419.8	-85.3673
419.9	-85.3675
420	-85.3677
420.1	-85.3679
420.2	-85.3681
420.3	-85.3683
420.4	-85.3685
420.5	-85.3687
420.6	-85.3689
420.7	-85.3691
420.8	-85.3693
420.9	-85.3695
421	-85.3697
421.1	-85.3699
421.2	-85.3701
421.3	-85.3703
421.4	-85.3705
421.5	-85.3707
421.6	-85.3709
421.7	-85.3711
421.8	-85.3713
421.9	-85.3715
422	-85.3717
422.1	-85.3719
422.2	-85.3721
422.3	-85.3724
422.4	-85.3726
422.5	-85.3728
422.6	-85.373
422.7	-85.3732
422.8	-85.3734
422.9	-85.3736
423	-85.3738
423.1	-85.374
423.2	-85.3742
423.3	-85.3744
423.4	-85.3746
423.5	-85.3748
423.6	-85.375
423.7	-85.3752
423.8	-85.3754
423.9	-85.3756
424	-85.3758
424.1	-85.376
424.2	-85.3762
424.3	-85.3764
424.4	-85.3766
424.5	-85.3768
424.6	-85.377
424.7	-85.3772
424.8	-85.3774
424.9	-85.3776
425	-85.3778
425.1	-85.378
425.2	-85.3782
425.3	-85.3784
425.4	-85.3786
425.5	-85.3788
425.6	-85.379
425.7	-85.3792
425.8	-85.3794
425.9	-85.3796
426	-85.3798
426.1	-85.38
426.2	-85.3802
426.3	-85.3803
426.4	-85.3805
426.5	-85.3807
426.6	-85.3809
426.7	-85.3811
426.8	-85.3813
426.9	-85.3815
427	-85.3817
427.1	-85.3819
427.2	-85.3821
427.3	-85.3823
427.4	-85.3825
427.5	-85.3827
427.6	-85.3829
427.7	-85.3831
427.8	-85.3833
427.9	-85.3835
428	-85.3837
428.1	-85.3839
428.2	-85.3841
428.3	-85.3843
428.4	-85.3845
428.5	-85.3847
428.6	-85.3849
428.7	-85.3851
428.8	-85.3853
428.9	-85.3855
429	-85.3857
429.1	-85.3859
429.2	-85.386
429.3	-85.3862
429.4	-85.3864
429.5	-85.3866
429.6	-85.3868
429.7	-85.387
429.8	-85.3872
429.9	-85.3874
430	-85.3876
430.1	-85.3878
430.2	-85.388
430.3	-85.3882
430.4	-85.3884
430.5	-85.3886
430.6	-85.3888
430.7	-85.389
430.8	-85.3892
430.9	-85.3894
431	-85.3895
431.1	-85.3897
431.2	-85.3899
431.3	-85.3901
431.4	-85.3903
431.5	-85.3905
431.6	-85.3907
431.7	-85.3909
431.8	-85.3911
431.9	-85.3913
432	-85.3915
432.1	-85.3917
432.2	-85.3919
432.3	-85.392
432.4	-85.3922
432.5	-85.3924
432.6	-85.3926
432.7	-85.3928
432.8	-85.393
432.9	-85.3932
433	-85.3934
433.1	-85.3936
433.2	-85.3938
433.3	-85.394
433.4	-85.3942
433.5	-85.3943
433.6	-85.3945
433.7	-85.3947
433.8	-85.3949
433.9	-85.3951
434	-85.3953
434.1	-85.3955
434.2	-85.3957
434.3	-85.3959
434.4	-85.3961
434.5	-85.3963
434.6	-85.3964
434.7	-85.3966
434.8	-85.3968
434.9	-85.397
435	-85.3972
435.1	-85.3974
435.2	-85.3976
435.3	-85.3978
435.4	-85.398
435.5	-85.3981
435.6	-85.3983
435.7	-85.3985
435.8	-85.3987
435.9	-85.3989
436	-85.3991
436.1	-85.3993
436.2	-85.3995
436.3	-85.3997
436.4	-85.3998
436.5	-85.4
436.6	-85.4002
436.7	-85.4004
436.8	-85.4006
436.9	-85.4008
437	-85.401
437.1	-85.4012
437.2	-85.4013
437.3	-85.4015
437.4	-85.4017
437.5	-85.4019
437.6	-85.4021
437.7	-85.4023
437.8	-85.4025
437.9	-85.4027
438	-85.4028
438.1	-85.403
438.2	-85.4032
438.3	-85.4034
438.4	-85.4036
438.5	-85.4038
438.6	-85.404
438.7	-85.4041
438.8	-85.4043
438.9	-85.4045
439	-85.4047
439.1	-85.4049
439.2	-85.4051
439.3	-85.4053
439.4	-85.4054
439.5	-85.4056
439.6	-85.4058
439.7	-85.406
439.8	-85.4062
439.9	-85.4064
440	-85.4066
440.1	-85.4067
440.2	-85.4069
440.3	-85.4071
440.4	-85.4073
440.5	-85.4075
440.6	-85.4077
440.7	-85.4078
440.8	-85.408
440.9	-85.4082
441	-85.4084
441.1	-85.4086
441.2	-85.4088
441.3	-85.409
441.4	-85.4091
441.5	-85.4093
441.6	-85.4095
441.7	-85.4097
441.8	-85.4099
441.9	-85.4101
442	-85.4102
442.1	-85.4104
442.2	-85.4106
442.3	-85.4108
442.4	-85.411
442.5	-85.4111
442.6	-85.4113
442.7	-85.4115
442.8	-85.4117
442.9	-85.4119
443	-85.4121
443.1	-85.4122
443.2	-85.4124
443.3	-85.4126
443.4	-85.4128
443.5	-85.413
443.6	-85.4131
443.7	-85.4133
443.8	-85.4135
443.9	-85.4137
444	-85.4139
444.1	-85.4141
444.2	-85.4142
444.3	-85.4144
444.4	-85.4146
444.5	-85.4148
444.6	-85.415
444.7	-85.4151
444.8	-85.4153
444.9	-85.4155
445	-85.4157
445.1	-85.4159
445.2	-85.416
445.3	-85.4162
445.4	-85.4164
445.5	-85.4166
445.6	-85.4168
445.7	-85.4169
445.8	-85.4171
445.9	-85.4173
446	-85.4175
446.1	-85.4177
446.2	-85.4178
446.3	-85.418
446.4	-85.4182
446.5	-85.4184
446.6	-85.4186
446.7	-85.4187
446.8	-85.4189
446.9	-85.4191
447	-85.4193
447.1	-85.4194
447.2	-85.4196
447.3	-85.4198
447.4	-85.42
447.5	-85.4202
447.6	-85.4203
447.7	-85.4205
447.8	-85.4207
447.9	-85.4209
448	-85.421
448.1	-85.4212
448.2	-85.4214
448.3	-85.4216
448.4	-85.4218
448.5	-85.4219
448.6	-85.4221
448.7	-85.4223
448.8	-85.4225
448.9	-85.4226
449	-85.4228
449.1	-85.423
449.2	-85.4232
449.3	-85.4233
449.4	-85.4235
449.5	-85.4237
449.6	-85.4239
449.7	-85.4241
449.8	-85.4242
449.9	-85.4244
450	-85.4246
450.1	-85.4248
450.2	-85.4249
450.3	-85.4251
450.4	-85.4253
450.5	-85.4255
450.6	-85.4256
450.7	-85.4258
450.8	-85.426
450.9	-85.4262
451	-85.4263
451.1	-85.4265
451.2	-85.4267
451.3	-85.4269
451.4	-85.427
451.5	-85.4272
451.6	-85.4274
451.7	-85.4276
451.8	-85.4277
451.9	-85.4279
452	-85.4281
452.1	-85.4283
452.2	-85.4284
452.3	-85.4286
452.4	-85.4288
452.5	-85.4289
452.6	-85.4291
452.7	-85.4293
452.8	-85.4295
452.9	-85.4296
453	-85.4298
453.1	-85.43
453.2	-85.4302
453.3	-85.4303
453.4	-85.4305
453.5	-85.4307
453.6	-85.4309
453.7	-85.431
453.8	-85.4312
453.9	-85.4314
454	-85.4315
454.1	-85.4317
454.2	-85.4319
454.3	-85.4321
454.4	-85.4322
454.5	-85.4324
454.6	-85.4326
454.7	-85.4327
454.8	-85.4329
454.9	-85.4331
455	-85.4333
455.1	-85.4334
455.2	-85.4336
455.3	-85.4338
455.4	-85.4339
455.5	-85.4341
455.6	-85.4343
455.7	-85.4345
455.8	-85.4346
455.9	-85.4348
456	-85.435
456.1	-85.4351
456.2	-85.4353
456.3	-85.4355
456.4	-85.4357
456.5	-85.4358
456.6	-85.436
456.7	-85.4362
456.8	-85.4363
456.9	-85.4365
457	-85.4367
457.1	-85.4368
457.2	-85.437
457.3	-85.4372
457.4	-85.4374
457.5	-85.4375
457.6	-85.4377
457.7	-85.4379
457.8	-85.438
457.9	-85.4382
458	-85.4384
458.1	-85.4385
458.2	-85.4387
458.3	-85.4389
458.4	-85.439
458.5	-85.4392
458.6	-85.4394
458.7	-85.4396
458.8	-85.4397
458.9	-85.4399
459	-85.4401
459.1	-85.4402
459.2	-85.4404
459.3	-85.4406
459.4	-85.4407
459.5	-85.4409
459.6	-85.4411
459.7	-85.4412
459.8	-85.4414
459.9	-85.4416
460	-85.4417
460.1	-85.4419
460.2	-85.4421
460.3	-85.4422
460.4	-85.4424
460.5	-85.4426
460.6	-85.4427
460.7	-85.4429
460.8	-85.4431
460.9	-85.4432
461	-85.4434
461.1	-85.4436
461.2	-85.4437
461.3	-85.4439
461.4	-85.4441
461.5	-85.4442
461.6	-85.4444
461.7	-85.4446
461.8	-85.4447
461.9	-85.4449
462	-85.4451
462.1	-85.4452
462.2	-85.4454
462.3	-85.4456
462.4	-85.4457
462.5	-85.4459
462.6	-85.4461
462.7	-85.4462
462.8	-85.4464
462.9	-85.4466
463	-85.4467
463.1	-85.4469
463.2	-85.447
463.3	-85.4472
463.4	-85.4474
463.5	-85.4475
463.6	-85.4477
463.7	-85.4479
463.8	-85.448
463.9	-85.4482
464	-85.4484
464.1	-85.4485
464.2	-85.4487
464.3	-85.4489
464.4	-85.449
464.5	-85.4492
464.6	-85.4493
464.7	-85.4495
464.8	-85.4497
464.9	-85.4498
465	-85.45
465.1	-85.4502
465.2	-85.4503
465.3	-85.4505
465.4	-85.4506
465.5	-85.4508
465.6	-85.451
465.7	-85.4511
465.8	-85.4513
465.9	-85.4515
466	-85.4516
466.1	-85.4518
466.2	-85.4519
466.3	-85.4521
466.4	-85.4523
466.5	-85.4524
466.6	-85.4526
466.7	-85.4528
466.8	-85.4529
466.9	-85.4531
467	-85.4532
467.1	-85.4534
467.2	-85.4536
467.3	-85.4537
467.4	-85.4539
467.5	-85.4541
467.6	-85.4542
467.7	-85.4544
467.8	-85.4545
467.9	-85.4547
468	-85.4549
468.1	-85.455
468.2	-85.4552
468.3	-85.4553
468.4	-85.4555
468.5	-85.4557
468.6	-85.4558
468.7	-85.456
468.8	-85.4561
468.9	-85.4563
469	-85.4565
469.1	-85.4566
469.2	-85.4568
469.3	-85.4569
469.4	-85.4571
469.5	-85.4573
469.6	-85.4574
469.7	-85.4576
469.8	-85.4577
469.9	-85.4579
470	-85.4581
470.1	-85.4582
470.2	-85.4584
470.3	-85.4585
470.4	-85.4587
470.5	-85.4589
470.6	-85.459
470.7	-85.4592
470.8	-85.4593
470.9	-85.4595
471	-85.4596
471.1	-85.4598
471.2	-85.46
471.3	-85.4601
471.4	-85.4603
471.5	-85.4604
471.6	-85.4606
471.7	-85.4608
471.8	-85.4609
471.9	-85.4611
472	-85.4612
472.1	-85.4614
472.2	-85.4615
472.3	-85.4617
472.4	-85.4619
472.5	-85.462
472.6	-85.4622
472.7	-85.4623
472.8	-85.4625
472.9	-85.4626
473	-85.4628
473.1	-85.463
473.2	-85.4631
473.3	-85.4633
473.4	-85.4634
473.5	-85.4636
473.6	-85.4637
473.7	-85.4639
473.8	-85.4641
473.9	-85.4642
474	-85.4644
474.1	-85.4645
474.2	-85.4647
474.3	-85.4648
474.4	-85.465
474.5	-85.4651
474.6	-85.4653
474.7	-85.4655
474.8	-85.4656
474.9	-85.4658
475	-85.4659
475.1	-85.4661
475.2	-85.4662
475.3	-85.4664
475.4	-85.4665
475.5	-85.4667
475.6	-85.4669
475.7	-85.467
475.8	-85.4672
475.9	-85.4673
476	-85.4675
476.1	-85.4676
476.2	-85.4678
476.3	-85.4679
476.4	-85.4681
476.5	-85.4683
476.6	-85.4684
476.7	-85.4686
476.8	-85.4687
476.9	-85.4689
477	-85.469
477.1	-85.4692
477.2	-85.4693
477.3	-85.4695
477.4	-85.4696
477.5	-85.4698
477.6	-85.4699
477.7	-85.4701
477.8	-85.4702
477.9	-85.4704
478	-85.4706
478.1	-85.4707
478.2	-85.4709
478.3	-85.471
478.4	-85.4712
478.5	-85.4713
478.6	-85.4715
478.7	-85.4716
478.8	-85.4718
478.9	-85.4719
479	-85.4721
479.1	-85.4722
479.2	-85.4724
479.3	-85.4725
479.4	-85.4727
479.5	-85.4728
479.6	-85.473
479.7	-85.4731
479.8	-85.4733
479.9	-85.4735
480	-85.4736
480.1	-85.4738
480.2	-85.4739
480.3	-85.4741
480.4	-85.4742
480.5	-85.4744
480.6	-85.4745
480.7	-85.4747
480.8	-85.4748
480.9	-85.475
481	-85.4751
481.1	-85.4753
481.2	-85.4754
481.3	-85.4756
481.4	-85.4757
481.5	-85.4759
481.6	-85.476
481.7	-85.4762
481.8	-85.4763
481.9	-85.4765
482	-85.4766
482.1	-85.4768
482.2	-85.4769
482.3	-85.4771
482.4	-85.4772
482.5	-85.4774
482.6	-85.4775
482.7	-85.4777
482.8	-85.4778
482.9	-85.478
483	-85.4781
483.1	-85.4783
483.2	-85.4784
483.3	-85.4786
483.4	-85.4787
483.5	-85.4789
483.6	-85.479
483.7	-85.4792
483.8	-85.4793
483.9	-85.4795
484	-85.4796
484.1	-85.4798
484.2	-85.4799
484.3	-85.4801
484.4	-85.4802
484.5	-85.4804
484.6	-85.4805
484.7	-85.4807
484.8	-85.4808
484.9	-85.481
485	-85.4811
485.1	-85.4812
485.2	-85.4814
485.3	-85.4815
485.4	-85.4817
485.5	-85.4818
485.6	-85.482
485.7	-85.4821
485.8	-85.4823
485.9	-85.4824
486	-85.4826
486.1	-85.4827
486.2	-85.4829
486.3	-85.483
486.4	-85.4832
486.5	-85.4833
486.6	-85.4835
486.7	-85.4836
486.8	-85.4838
486.9	-85.4839
487	-85.484
487.1	-85.4842
487.2	-85.4843
487.3	-85.4845
487.4	-85.4846
487.5	-85.4848
487.6	-85.4849
487.7	-85.4851
487.8	-85.4852
487.9	-85.4854
488	-85.4855
488.1	-85.4857
488.2	-85.4858
488.3	-85.4859
488.4	-85.4861
488.5	-85.4862
488.6	-85.4864
488.7	-85.4865
488.8	-85.4867
488.9	-85.4868
489	-85.487
489.1	-85.4871
489.2	-85.4873
489.3	-85.4874
489.4	-85.4875
489.5	-85.4877
489.6	-85.4878
489.7	-85.488
489.8	-85.4881
489.9	-85.4883
490	-85.4884
490.1	-85.4886
490.2	-85.4887
490.3	-85.4888
490.4	-85.489
490.5	-85.4891
490.6	-85.4893
490.7	-85.4894
490.8	-85.4896
490.9	-85.4897
491	-85.4899
491.1	-85.49
491.2	-85.4901
491.3	-85.4903
491.4	-85.4904
491.5	-85.4906
491.6	-85.4907
491.7	-85.4909
491.8	-85.491
491.9	-85.4911
492	-85.4913
492.1	-85.4914
492.2	-85.4916
492.3	-85.4917
492.4	-85.4919
492.5	-85.492
492.6	-85.4921
492.7	-85.4923
492.8	-85.4924
492.9	-85.4926
493	-85.4927
493.1	-85.4929
493.2	-85.493
493.3	-85.4931
493.4	-85.4933
493.5	-85.4934
493.6	-85.4936
493.7	-85.4937
493.8	-85.4939
493.9	-85.494
494	-85.4941
494.1	-85.4943
494.2	-85.4944
494.3	-85.4946
494.4	-85.4947
494.5	-85.4948
494.6	-85.495
494.7	-85.4951
494.8	-85.4953
494.9	-85.4954
495	-85.4956
495.1	-85.4957
495.2	-85.4958
495.3	-85.496
495.4	-85.4961
495.5	-85.4963
495.6	-85.4964
495.7	-85.4965
495.8	-85.4967
495.9	-85.4968
496	-85.497
496.1	-85.4971
496.2	-85.4972
496.3	-85.4974
496.4	-85.4975
496.5	-85.4977
496.6	-85.4978
496.7	-85.4979
496.8	-85.4981
496.9	-85.4982
497	-85.4984
497.1	-85.4985
497.2	-85.4986
497.3	-85.4988
497.4	-85.4989
497.5	-85.4991
497.6	-85.4992
497.7	-85.4993
497.8	-85.4995
497.9	-85.4996
498	-85.4998
498.1	-85.4999
498.2	-85.5
498.3	-85.5002
498.4	-85.5003
498.5	-85.5004
498.6	-85.5006
498.7	-85.5007
498.8	-85.5009
498.9	-85.501
499	-85.5011
499.1	-85.5013
499.2	-85.5014
499.3	-85.5016
499.4	-85.5017
499.5	-85.5018
499.6	-85.502
499.7	-85.5021
499.8	-85.5022
499.9	-85.5024
500	-85.5025
500.1	-85.5027
500.2	-85.5028
500.3	-85.5029
500.4	-85.5031
500.5	-85.5032
500.6	-85.5033
500.7	-85.5035
500.8	-85.5036
500.9	-85.5038
501	-85.5039
501.1	-85.504
501.2	-85.5042
501.3	-85.5043
501.4	-85.5044
501.5	-85.5046
501.6	-85.5047
501.7	-85.5049
501.8	-85.505
501.9	-85.5051
502	-85.5053
502.1	-85.5054
502.2	-85.5055
502.3	-85.5057
502.4	-85.5058
502.5	-85.5059
502.6	-85.5061
502.7	-85.5062
502.8	-85.5063
502.9	-85.5065
503	-85.5066
503.1	-85.5068
503.2	-85.5069
503.3	-85.507
503.4	-85.5072
503.5	-85.5073
503.6	-85.5074
503.7	-85.5076
503.8	-85.5077
503.9	-85.5078
504	-85.508
504.1	-85.5081
504.2	-85.5082
504.3	-85.5084
504.4	-85.5085
504.5	-85.5086
504.6	-85.5088
504.7	-85.5089
504.8	-85.5091
504.9	-85.5092
505	-85.5093
505.1	-85.5095
505.2	-85.5096
505.3	-85.5097
505.4	-85.5099
505.5	-85.51
505.6	-85.5101
505.7	-85.5103
505.8	-85.5104
505.9	-85.5105
506	-85.5107
506.1	-85.5108
506.2	-85.5109
506.3	-85.5111
506.4	-85.5112
506.5	-85.5113
506.6	-85.5115
506.7	-85.5116
506.8	-85.5117
506.9	-85.5119
507	-85.512
507.1	-85.5121
507.2	-85.5123
507.3	-85.5124
507.4	-85.5125
507.5	-85.5127
507.6	-85.5128
507.7	-85.5129
507.8	-85.5131
507.9	-85.5132
508	-85.5133
508.1	-85.5135
508.2	-85.5136
508.3	-85.5137
508.4	-85.5139
508.5	-85.514
508.6	-85.5141
508.7	-85.5143
508.8	-85.5144
508.9	-85.5145
509	-85.5146
509.1	-85.5148
509.2	-85.5149
509.3	-85.515
509.4	-85.5152
509.5	-85.5153
509.6	-85.5154
509.7	-85.5156
509.8	-85.5157
509.9	-85.5158
510	-85.516
510.1	-85.5161
510.2	-85.5162
510.3	-85.5164
510.4	-85.5165
510.5	-85.5166
510.6	-85.5168
510.7	-85.5169
510.8	-85.517
510.9	-85.5171
511	-85.5173
511.1	-85.5174
511.2	-85.5175
511.3	-85.5177
511.4	-85.5178
511.5	-85.5179
511.6	-85.5181
511.7	-85.5182
511.8	-85.5183
511.9	-85.5184
512	-85.5186
512.1	-85.5187
512.2	-85.5188
512.3	-85.519
512.4	-85.5191
512.5	-85.5192
512.6	-85.5194
512.7	-85.5195
512.8	-85.5196
512.9	-85.5197
513	-85.5199
513.1	-85.52
513.2	-85.5201
513.3	-85.5203
513.4	-85.5204
513.5	-85.5205
513.6	-85.5206
513.7	-85.5208
513.8	-85.5209
513.9	-85.521
514	-85.5212
514.1	-85.5213
514.2	-85.5214
514.3	-85.5216
514.4	-85.5217
514.5	-85.5218
514.6	-85.5219
514.7	-85.5221
514.8	-85.5222
514.9	-85.5223
515	-85.5224
515.1	-85.5226
515.2	-85.5227
515.3	-85.5228
515.4	-85.523
515.5	-85.5231
515.6	-85.5232
515.7	-85.5233
515.8	-85.5235
515.9	-85.5236
516	-85.5237
516.1	-85.5239
516.2	-85.524
516.3	-85.5241
516.4	-85.5242
516.5	-85.5244
516.6	-85.5245
516.7	-85.5246
516.8	-85.5247
516.9	-85.5249
517	-85.525
517.1	-85.5251
517.2	-85.5253
517.3	-85.5254
517.4	-85.5255
517.5	-85.5256
517.6	-85.5258
517.7	-85.5259
517.8	-85.526
517.9	-85.5261
518	-85.5263
518.1	-85.5264
518.2	-85.5265
518.3	-85.5266
518.4	-85.5268
518.5	-85.5269
518.6	-85.527
518.7	-85.5271
518.8	-85.5273
518.9	-85.5274
519	-85.5275
519.1	-85.5277
519.2	-85.5278
519.3	-85.5279
519.4	-85.528
519.5	-85.5282
519.6	-85.5283
519.7	-85.5284
519.8	-85.5285
519.9	-85.5287
520	-85.5288
520.1	-85.5289
520.2	-85.529
520.3	-85.5292
520.4	-85.5293
520.5	-85.5294
520.6	-85.5295
520.7	-85.5297
520.8	-85.5298
520.9	-85.5299
521	-85.53
521.1	-85.5302
521.2	-85.5303
521.3	-85.5304
521.4	-85.5305
521.5	-85.5307
521.6	-85.5308
521.7	-85.5309
521.8	-85.531
521.9	-85.5311
522	-85.5313
522.1	-85.5314
522.2	-85.5315
522.3	-85.5316
522.4	-85.5318
522.5	-85.5319
522.6	-85.532
522.7	-85.5321
522.8	-85.5323
522.9	-85.5324
523	-85.5325
523.1	-85.5326
523.2	-85.5328
523.3	-85.5329
523.4	-85.533
523.5	-85.5331
523.6	-85.5332
523.7	-85.5334
523.8	-85.5335
523.9	-85.5336
524	-85.5337
524.1	-85.5339
524.2	-85.534
524.3	-85.5341
524.4	-85.5342
524.5	-85.5344
524.6	-85.5345
524.7	-85.5346
524.8	-85.5347
524.9	-85.5348
525	-85.535
525.1	-85.5351
525.2	-85.5352
525.3	-85.5353
525.4	-85.5355
525.5	-85.5356
525.6	-85.5357
525.7	-85.5358
525.8	-85.5359
525.9	-85.5361
526	-85.5362
526.1	-85.5363
526.2	-85.5364
526.3	-85.5365
526.4	-85.5367
526.5	-85.5368
526.6	-85.5369
526.7	-85.537
526.8	-85.5372
526.9	-85.5373
527	-85.5374
527.1	-85.5375
527.2	-85.5376
527.3	-85.5378
527.4	-85.5379
527.5	-85.538
527.6	-85.5381
527.7	-85.5382
527.8	-85.5384
527.9	-85.5385
528	-85.5386
528.1	-85.5387
528.2	-85.5388
528.3	-85.539
528.4	-85.5391
528.5	-85.5392
528.6	-85.5393
528.7	-85.5394
528.8	-85.5396
528.9	-85.5397
529	-85.5398
529.1	-85.5399
529.2	-85.54
529.3	-85.5402
529.4	-85.5403
529.5	-85.5404
529.6	-85.5405
529.7	-85.5406
529.8	-85.5408
529.9	-85.5409
530	-85.541
530.1	-85.5411
530.2	-85.5412
530.3	-85.5414
530.4	-85.5415
530.5	-85.5416
530.6	-85.5417
530.7	-85.5418
530.8	-85.542
530.9	-85.5421
531	-85.5422
531.1	-85.5423
531.2	-85.5424
531.3	-85.5426
531.4	-85.5427
531.5	-85.5428
531.6	-85.5429
531.7	-85.543
531.8	-85.5431
531.9	-85.5433
532	-85.5434
532.1	-85.5435
532.2	-85.5436
532.3	-85.5437
532.4	-85.5439
532.5	-85.544
532.6	-85.5441
532.7	-85.5442
532.8	-85.5443
532.9	-85.5444
533	-85.5446
533.1	-85.5447
533.2	-85.5448
533.3	-85.5449
533.4	-85.545
533.5	-85.5451
533.6	-85.5453
533.7	-85.5454
533.8	-85.5455
533.9	-85.5456
534	-85.5457
534.1	-85.5459
534.2	-85.546
534.3	-85.5461
534.4	-85.5462
534.5	-85.5463
534.6	-85.5464
534.7	-85.5466
534.8	-85.5467
534.9	-85.5468
535	-85.5469
535.1	-85.547
535.2	-85.5471
535.3	-85.5473
535.4	-85.5474
535.5	-85.5475
535.6	-85.5476
535.7	-85.5477
535.8	-85.5478
535.9	-85.5479
536	-85.5481
536.1	-85.5482
536.2	-85.5483
536.3	-85.5484
536.4	-85.5485
536.5	-85.5486
536.6	-85.5488
536.7	-85.5489
536.8	-85.549
536.9	-85.5491
537	-85.5492
537.1	-85.5493
537.2	-85.5495
537.3	-85.5496
537.4	-85.5497
537.5	-85.5498
537.6	-85.5499
537.7	-85.55
537.8	-85.5501
537.9	-85.5503
538	-85.5504
538.1	-85.5505
538.2	-85.5506
538.3	-85.5507
538.4	-85.5508
538.5	-85.5509
538.6	-85.5511
538.7	-85.5512
538.8	-85.5513
538.9	-85.5514
539	-85.5515
539.1	-85.5516
539.2	-85.5517
539.3	-85.5519
539.4	-85.552
539.5	-85.5521
539.6	-85.5522
539.7	-85.5523
539.8	-85.5524
539.9	-85.5525
540	-85.5527
540.1	-85.5528
540.2	-85.5529
540.3	-85.553
540.4	-85.5531
540.5	-85.5532
540.6	-85.5533
540.7	-85.5535
540.8	-85.5536
540.9	-85.5537
541	-85.5538
541.1	-85.5539
541.2	-85.554
541.3	-85.5541
541.4	-85.5543
541.5	-85.5544
541.6	-85.5545
541.7	-85.5546
541.8	-85.5547
541.9	-85.5548
542	-85.5549
542.1	-85.555
542.2	-85.5552
542.3	-85.5553
542.4	-85.5554
542.5	-85.5555
542.6	-85.5556
542.7	-85.5557
542.8	-85.5558
542.9	-85.5559
543	-85.5561
543.1	-85.5562
543.2	-85.5563
543.3	-85.5564
543.4	-85.5565
543.5	-85.5566
543.6	-85.5567
543.7	-85.5568
543.8	-85.557
543.9	-85.5571
544	-85.5572
544.1	-85.5573
544.2	-85.5574
544.3	-85.5575
544.4	-85.5576
544.5	-85.5577
544.6	-85.5578
544.7	-85.558
544.8	-85.5581
544.9	-85.5582
545	-85.5583
545.1	-85.5584
545.2	-85.5585
545.3	-85.5586
545.4	-85.5587
545.5	-85.5588
545.6	-85.559
545.7	-85.5591
545.8	-85.5592
545.9	-85.5593
546	-85.5594
546.1	-85.5595
546.2	-85.5596
546.3	-85.5597
546.4	-85.5598
546.5	-85.56
546.6	-85.5601
546.7	-85.5602
546.8	-85.5603
546.9	-85.5604
547	-85.5605
547.1	-85.5606
547.2	-85.5607
547.3	-85.5608
547.4	-85.5609
547.5	-85.5611
547.6	-85.5612
547.7	-85.5613
547.8	-85.5614
547.9	-85.5615
548	-85.5616
548.1	-85.5617
548.2	-85.5618
548.3	-85.5619
548.4	-85.562
548.5	-85.5622
548.6	-85.5623
548.7	-85.5624
548.8	-85.5625
548.9	-85.5626
549	-85.5627
549.1	-85.5628
549.2	-85.5629
549.3	-85.563
549.4	-85.5631
549.5	-85.5632
549.6	-85.5634
549.7	-85.5635
549.8	-85.5636
549.9	-85.5637
550	-85.5638
550.1	-85.5639
550.2	-85.564
550.3	-85.5641
550.4	-85.5642
550.5	-85.5643
550.6	-85.5644
550.7	-85.5645
550.8	-85.5647
550.9	-85.5648
551	-85.5649
551.1	-85.565
551.2	-85.5651
551.3	-85.5652
551.4	-85.5653
551.5	-85.5654
551.6	-85.5655
551.7	-85.5656
551.8	-85.5657
551.9	-85.5658
552	-85.5659
552.1	-85.5661
552.2	-85.5662
552.3	-85.5663
552.4	-85.5664
552.5	-85.5665
552.6	-85.5666
552.7	-85.5667
552.8	-85.5668
552.9	-85.5669
553	-85.567
553.1	-85.5671
553.2	-85.5672
553.3	-85.5673
553.4	-85.5675
553.5	-85.5676
553.6	-85.5677
553.7	-85.5678
553.8	-85.5679
553.9	-85.568
554	-85.5681
554.1	-85.5682
554.2	-85.5683
554.3	-85.5684
554.4	-85.5685
554.5	-85.5686
554.6	-85.5687
554.7	-85.5688
554.8	-85.5689
554.9	-85.569
555	-85.5692
555.1	-85.5693
555.2	-85.5694
555.3	-85.5695
555.4	-85.5696
555.5	-85.5697
555.6	-85.5698
555.7	-85.5699
555.8	-85.57
555.9	-85.5701
556	-85.5702
556.1	-85.5703
556.2	-85.5704
556.3	-85.5705
556.4	-85.5706
556.5	-85.5707
556.6	-85.5708
556.7	-85.571
556.8	-85.5711
556.9	-85.5712
557	-85.5713
557.1	-85.5714
557.2	-85.5715
557.3	-85.5716
557.4	-85.5717
557.5	-85.5718
557.6	-85.5719
557.7	-85.572
557.8	-85.5721
557.9	-85.5722
558	-85.5723
558.1	-85.5724
558.2	-85.5725
558.3	-85.5726
558.4	-85.5727
558.5	-85.5728
558.6	-85.5729
558.7	-85.573
558.8	-85.5732
558.9	-85.5733
559	-85.5734
559.1	-85.5735
559.2	-85.5736
559.3	-85.5737
559.4	-85.5738
559.5	-85.5739
559.6	-85.574
559.7	-85.5741
559.8	-85.5742
559.9	-85.5743
560	-85.5744
560.1	-85.5745
560.2	-85.5746
560.3	-85.5747
560.4	-85.5748
560.5	-85.5749
560.6	-85.575
560.7	-85.5751
560.8	-85.5752
560.9	-85.5753
561	-85.5754
561.1	-85.5755
561.2	-85.5756
561.3	-85.5757
561.4	-85.5758
561.5	-85.576
561.6	-85.5761
561.7	-85.5762
561.8	-85.5763
561.9	-85.5764
562	-85.5765
562.1	-85.5766
562.2	-85.5767
562.3	-85.5768
562.4	-85.5769
562.5	-85.577
562.6	-85.5771
562.7	-85.5772
562.8	-85.5773
562.9	-85.5774
563	-85.5775
563.1	-85.5776
563.2	-85.5777
563.3	-85.5778
563.4	-85.5779
563.5	-85.578
563.6	-85.5781
563.7	-85.5782
563.8	-85.5783
563.9	-85.5784
564	-85.5785
564.1	-85.5786
564.2	-85.5787
564.3	-85.5788
564.4	-85.5789
564.5	-85.579
564.6	-85.5791
564.7	-85.5792
564.8	-85.5793
564.9	-85.5794
565	-85.5795
565.1	-85.5796
565.2	-85.5797
565.3	-85.5798
565.4	-85.5799
565.5	-85.58
565.6	-85.5801
565.7	-85.5802
565.8	-85.5803
565.9	-85.5804
566	-85.5805
566.1	-85.5806
566.2	-85.5807
566.3	-85.5808
566.4	-85.5809
566.5	-85.581
566.6	-85.5811
566.7	-85.5812
566.8	-85.5813
566.9	-85.5814
567	-85.5815
567.1	-85.5816
567.2	-85.5817
567.3	-85.5818
567.4	-85.5819
567.5	-85.582
567.6	-85.5821
567.7	-85.5822
567.8	-85.5823
567.9	-85.5824
568	-85.5825
568.1	-85.5826
568.2	-85.5827
568.3	-85.5828
568.4	-85.5829
568.5	-85.583
568.6	-85.5831
568.7	-85.5832
568.8	-85.5833
568.9	-85.5834
569	-85.5835
569.1	-85.5836
569.2	-85.5837
569.3	-85.5838
569.4	-85.5839
569.5	-85.584
569.6	-85.5841
569.7	-85.5842
569.8	-85.5843
569.9	-85.5844
570	-85.5845
570.1	-85.5846
570.2	-85.5847
570.3	-85.5848
570.4	-85.5849
570.5	-85.585
570.6	-85.5851
570.7	-85.5852
570.8	-85.5853
570.9	-85.5854
571	-85.5855
571.1	-85.5856
571.2	-85.5857
571.3	-85.5858
571.4	-85.5859
571.5	-85.586
571.6	-85.5861
571.7	-85.5862
571.8	-85.5863
571.9	-85.5864
572	-85.5865
572.1	-85.5866
572.2	-85.5867
572.3	-85.5868
572.4	-85.5869
572.5	-85.587
572.6	-85.5871
572.7	-85.5872
572.8	-85.5873
572.9	-85.5874
573	-85.5875
573.1	-85.5876
573.2	-85.5877
573.3	-85.5878
573.4	-85.5879
573.5	-85.588
573.6	-85.5881
573.7	-85.5882
573.8	-85.5883
573.9	-85.5884
574	-85.5885
574.1	-85.5886
574.2	-85.5887
574.3	-85.5887
574.4	-85.5888
574.5	-85.5889
574.6	-85.589
574.7	-85.5891
574.8	-85.5892
574.9	-85.5893
575	-85.5894
575.1	-85.5895
575.2	-85.5896
575.3	-85.5897
575.4	-85.5898
575.5	-85.5899
575.6	-85.59
575.7	-85.5901
575.8	-85.5902
575.9	-85.5903
576	-85.5904
576.1	-85.5905
576.2	-85.5906
576.3	-85.5907
576.4	-85.5908
576.5	-85.5909
576.6	-85.591
576.7	-85.5911
576.8	-85.5912
576.9	-85.5913
577	-85.5914
577.1	-85.5914
577.2	-85.5915
577.3	-85.5916
577.4	-85.5917
577.5	-85.5918
577.6	-85.5919
577.7	-85.592
577.8	-85.5921
577.9	-85.5922
578	-85.5923
578.1	-85.5924
578.2	-85.5925
578.3	-85.5926
578.4	-85.5927
578.5	-85.5928
578.6	-85.5929
578.7	-85.593
578.8	-85.5931
578.9	-85.5932
579	-85.5933
579.1	-85.5934
579.2	-85.5935
579.3	-85.5935
579.4	-85.5936
579.5	-85.5937
579.6	-85.5938
579.7	-85.5939
579.8	-85.594
579.9	-85.5941
580	-85.5942
580.1	-85.5943
580.2	-85.5944
580.3	-85.5945
580.4	-85.5946
580.5	-85.5947
580.6	-85.5948
580.7	-85.5949
580.8	-85.595
580.9	-85.5951
581	-85.5952
581.1	-85.5952
581.2	-85.5953
581.3	-85.5954
581.4	-85.5955
581.5	-85.5956
581.6	-85.5957
581.7	-85.5958
581.8	-85.5959
581.9	-85.596
582	-85.5961
582.1	-85.5962
582.2	-85.5963
582.3	-85.5964
582.4	-85.5965
582.5	-85.5966
582.6	-85.5967
582.7	-85.5967
582.8	-85.5968
582.9	-85.5969
583	-85.597
583.1	-85.5971
583.2	-85.5972
583.3	-85.5973
583.4	-85.5974
583.5	-85.5975
583.6	-85.5976
583.7	-85.5977
583.8	-85.5978
583.9	-85.5979
584	-85.598
584.1	-85.598
584.2	-85.5981
584.3	-85.5982
584.4	-85.5983
584.5	-85.5984
584.6	-85.5985
584.7	-85.5986
584.8	-85.5987
584.9	-85.5988
585	-85.5989
585.1	-85.599
585.2	-85.5991
585.3	-85.5992
585.4	-85.5992
585.5	-85.5993
585.6	-85.5994
585.7	-85.5995
585.8	-85.5996
585.9	-85.5997
586	-85.5998
586.1	-85.5999
586.2	-85.6
586.3	-85.6001
586.4	-85.6002
586.5	-85.6003
586.6	-85.6004
586.7	-85.6004
586.8	-85.6005
586.9	-85.6006
587	-85.6007
587.1	-85.6008
587.2	-85.6009
587.3	-85.601
587.4	-85.6011
587.5	-85.6012
587.6	-85.6013
587.7	-85.6014
587.8	-85.6015
587.9	-85.6015
588	-85.6016
588.1	-85.6017
588.2	-85.6018
588.3	-85.6019
588.4	-85.602
588.5	-85.6021
588.6	-85.6022
588.7	-85.6023
588.8	-85.6024
588.9	-85.6025
589	-85.6025
589.1	-85.6026
589.2	-85.6027
589.3	-85.6028
589.4	-85.6029
589.5	-85.603
589.6	-85.6031
589.7	-85.6032
589.8	-85.6033
589.9	-85.6034
590	-85.6034
590.1	-85.6035
590.2	-85.6036
590.3	-85.6037
590.4	-85.6038
590.5	-85.6039
590.6	-85.604
590.7	-85.6041
590.8	-85.6042
590.9	-85.6043
591	-85.6043
591.1	-85.6044
591.2	-85.6045
591.3	-85.6046
591.4	-85.6047
591.5	-85.6048
591.6	-85.6049
591.7	-85.605
591.8	-85.6051
591.9	-85.6052
592	-85.6052
592.1	-85.6053
592.2	-85.6054
592.3	-85.6055
592.4	-85.6056
592.5	-85.6057
592.6	-85.6058
592.7	-85.6059
592.8	-85.606
592.9	-85.606
593	-85.6061
593.1	-85.6062
593.2	-85.6063
593.3	-85.6064
593.4	-85.6065
593.5	-85.6066
593.6	-85.6067
593.7	-85.6068
593.8	-85.6068
593.9	-85.6069
594	-85.607
594.1	-85.6071
594.2	-85.6072
594.3	-85.6073
594.4	-85.6074
594.5	-85.6075
594.6	-85.6076
594.7	-85.6076
594.8	-85.6077
594.9	-85.6078
595	-85.6079
595.1	-85.608
595.2	-85.6081
595.3	-85.6082
595.4	-85.6083
595.5	-85.6084
595.6	-85.6084
595.7	-85.6085
595.8	-85.6086
595.9	-85.6087
596	-85.6088
596.1	-85.6089
596.2	-85.609
596.3	-85.6091
596.4	-85.6091
596.5	-85.6092
596.6	-85.6093
596.7	-85.6094
596.8	-85.6095
596.9	-85.6096
597	-85.6097
597.1	-85.6098
597.2	-85.6098
597.3	-85.6099
597.4	-85.61
597.5	-85.6101
597.6	-85.6102
597.7	-85.6103
597.8	-85.6104
597.9	-85.6105
598	-85.6105
598.1	-85.6106
598.2	-85.6107
598.3	-85.6108
598.4	-85.6109
598.5	-85.611
598.6	-85.6111
598.7	-85.6111
598.8	-85.6112
598.9	-85.6113
599	-85.6114
599.1	-85.6115
599.2	-85.6116
599.3	-85.6117
599.4	-85.6118
599.5	-85.6118
599.6	-85.6119
599.7	-85.612
599.8	-85.6121
599.9	-85.6122
600	-85.6123
600.1	-85.6124
600.2	-85.6124
600.3	-85.6125
600.4	-85.6126
600.5	-85.6127
600.6	-85.6128
600.7	-85.6129
600.8	-85.613
600.9	-85.613
601	-85.6131
601.1	-85.6132
601.2	-85.6133
601.3	-85.6134
601.4	-85.6135
601.5	-85.6136
601.6	-85.6136
601.7	-85.6137
601.8	-85.6138
601.9	-85.6139
602	-85.614
602.1	-85.6141
602.2	-85.6142
602.3	-85.6142
602.4	-85.6143
602.5	-85.6144
602.6	-85.6145
602.7	-85.6146
602.8	-85.6147
602.9	-85.6148
603	-85.6148
603.1	-85.6149
603.2	-85.615
603.3	-85.6151
603.4	-85.6152
603.5	-85.6153
603.6	-85.6154
603.7	-85.6154
603.8	-85.6155
603.9	-85.6156
604	-85.6157
604.1	-85.6158
604.2	-85.6159
604.3	-85.6159
604.4	-85.616
604.5	-85.6161
604.6	-85.6162
604.7	-85.6163
604.8	-85.6164
604.9	-85.6165
605	-85.6165
605.1	-85.6166
605.2	-85.6167
605.3	-85.6168
605.4	-85.6169
605.5	-85.617
605.6	-85.617
605.7	-85.6171
605.8	-85.6172
605.9	-85.6173
606	-85.6174
606.1	-85.6175
606.2	-85.6175
606.3	-85.6176
606.4	-85.6177
606.5	-85.6178
606.6	-85.6179
606.7	-85.618
606.8	-85.618
606.9	-85.6181
607	-85.6182
607.1	-85.6183
607.2	-85.6184
607.3	-85.6185
607.4	-85.6185
607.5	-85.6186
607.6	-85.6187
607.7	-85.6188
607.8	-85.6189
607.9	-85.619
608	-85.619
608.1	-85.6191
608.2	-85.6192
608.3	-85.6193
608.4	-85.6194
608.5	-85.6195
608.6	-85.6195
608.7	-85.6196
608.8	-85.6197
608.9	-85.6198
609	-85.6199
609.1	-85.62
609.2	-85.62
609.3	-85.6201
609.4	-85.6202
609.5	-85.6203
609.6	-85.6204
609.7	-85.6205
609.8	-85.6205
609.9	-85.6206
610	-85.6207
610.1	-85.6208
610.2	-85.6209
610.3	-85.621
610.4	-85.621
610.5	-85.6211
610.6	-85.6212
610.7	-85.6213
610.8	-85.6214
610.9	-85.6214
611	-85.6215
611.1	-85.6216
611.2	-85.6217
611.3	-85.6218
611.4	-85.6219
611.5	-85.6219
611.6	-85.622
611.7	-85.6221
611.8	-85.6222
611.9	-85.6223
612	-85.6223
612.1	-85.6224
612.2	-85.6225
612.3	-85.6226
612.4	-85.6227
612.5	-85.6228
612.6	-85.6228
612.7	-85.6229
612.8	-85.623
612.9	-85.6231
613	-85.6232
613.1	-85.6232
613.2	-85.6233
613.3	-85.6234
613.4	-85.6235
613.5	-85.6236
613.6	-85.6236
613.7	-85.6237
613.8	-85.6238
613.9	-85.6239
614	-85.624
614.1	-85.6241
614.2	-85.6241
614.3	-85.6242
614.4	-85.6243
614.5	-85.6244
614.6	-85.6245
614.7	-85.6245
614.8	-85.6246
614.9	-85.6247
615	-85.6248
615.1	-85.6249
615.2	-85.6249
615.3	-85.625
615.4	-85.6251
615.5	-85.6252
615.6	-85.6253
615.7	-85.6253
615.8	-85.6254
615.9	-85.6255
616	-85.6256
616.1	-85.6257
616.2	-85.6257
616.3	-85.6258
616.4	-85.6259
616.5	-85.626
616.6	-85.6261
616.7	-85.6261
616.8	-85.6262
616.9	-85.6263
617	-85.6264
617.1	-85.6265
617.2	-85.6265
617.3	-85.6266
617.4	-85.6267
617.5	-85.6268
617.6	-85.6269
617.7	-85.6269
617.8	-85.627
617.9	-85.6271
618	-85.6272
618.1	-85.6273
618.2	-85.6273
618.3	-85.6274
618.4	-85.6275
618.5	-85.6276
618.6	-85.6277
618.7	-85.6277
618.8	-85.6278
618.9	-85.6279
619	-85.628
619.1	-85.6281
619.2	-85.6281
619.3	-85.6282
619.4	-85.6283
619.5	-85.6284
619.6	-85.6284
619.7	-85.6285
619.8	-85.6286
619.9	-85.6287
620	-85.6288
620.1	-85.6288
620.2	-85.6289
620.3	-85.629
620.4	-85.6291
620.5	-85.6292
620.6	-85.6292
620.7	-85.6293
620.8	-85.6294
620.9	-85.6295
621	-85.6295
621.1	-85.6296
621.2	-85.6297
621.3	-85.6298
621.4	-85.6299
621.5	-85.6299
621.6	-85.63
621.7	-85.6301
621.8	-85.6302
621.9	-85.6303
622	-85.6303
622.1	-85.6304
622.2	-85.6305
622.3	-85.6306
622.4	-85.6306
622.5	-85.6307
622.6	-85.6308
622.7	-85.6309
622.8	-85.631
622.9	-85.631
623	-85.6311
623.1	-85.6312
623.2	-85.6313
623.3	-85.6313
623.4	-85.6314
623.5	-85.6315
623.6	-85.6316
623.7	-85.6317
623.8	-85.6317
623.9	-85.6318
624	-85.6319
624.1	-85.632
624.2	-85.632
624.3	-85.6321
624.4	-85.6322
624.5	-85.6323
624.6	-85.6323
624.7	-85.6324
624.8	-85.6325
624.9	-85.6326
625	-85.6327
625.1	-85.6327
625.2	-85.6328
625.3	-85.6329
625.4	-85.633
625.5	-85.633
625.6	-85.6331
625.7	-85.6332
625.8	-85.6333
625.9	-85.6333
626	-85.6334
626.1	-85.6335
626.2	-85.6336
626.3	-85.6337
626.4	-85.6337
626.5	-85.6338
626.6	-85.6339
626.7	-85.634
626.8	-85.634
626.9	-85.6341
627	-85.6342
627.1	-85.6343
627.2	-85.6343
627.3	-85.6344
627.4	-85.6345
627.5	-85.6346
627.6	-85.6346
627.7	-85.6347
627.8	-85.6348
627.9	-85.6349
628	-85.6349
628.1	-85.635
628.2	-85.6351
628.3	-85.6352
628.4	-85.6353
628.5	-85.6353
628.6	-85.6354
628.7	-85.6355
628.8	-85.6356
628.9	-85.6356
629	-85.6357
629.1	-85.6358
629.2	-85.6359
629.3	-85.6359
629.4	-85.636
629.5	-85.6361
629.6	-85.6362
629.7	-85.6362
629.8	-85.6363
629.9	-85.6364
630	-85.6365
630.1	-85.6365
630.2	-85.6366
630.3	-85.6367
630.4	-85.6368
630.5	-85.6368
630.6	-85.6369
630.7	-85.637
630.8	-85.6371
630.9	-85.6371
631	-85.6372
631.1	-85.6373
631.2	-85.6374
631.3	-85.6374
631.4	-85.6375
631.5	-85.6376
631.6	-85.6377
631.7	-85.6377
631.8	-85.6378
631.9	-85.6379
632	-85.638
632.1	-85.638
632.2	-85.6381
632.3	-85.6382
632.4	-85.6383
632.5	-85.6383
632.6	-85.6384
632.7	-85.6385
632.8	-85.6386
632.9	-85.6386
633	-85.6387
633.1	-85.6388
633.2	-85.6389
633.3	-85.6389
633.4	-85.639
633.5	-85.6391
633.6	-85.6392
633.7	-85.6392
633.8	-85.6393
633.9	-85.6394
634	-85.6394
634.1	-85.6395
634.2	-85.6396
634.3	-85.6397
634.4	-85.6397
634.5	-85.6398
634.6	-85.6399
634.7	-85.64
634.8	-85.64
634.9	-85.6401
635	-85.6402
635.1	-85.6403
635.2	-85.6403
635.3	-85.6404
635.4	-85.6405
635.5	-85.6406
635.6	-85.6406
635.7	-85.6407
635.8	-85.6408
635.9	-85.6408
636	-85.6409
636.1	-85.641
636.2	-85.6411
636.3	-85.6411
636.4	-85.6412
636.5	-85.6413
636.6	-85.6414
636.7	-85.6414
636.8	-85.6415
636.9	-85.6416
637	-85.6417
637.1	-85.6417
637.2	-85.6418
637.3	-85.6419
637.4	-85.6419
637.5	-85.642
637.6	-85.6421
637.7	-85.6422
637.8	-85.6422
637.9	-85.6423
638	-85.6424
638.1	-85.6425
638.2	-85.6425
638.3	-85.6426
638.4	-85.6427
638.5	-85.6427
638.6	-85.6428
638.7	-85.6429
638.8	-85.643
638.9	-85.643
639	-85.6431
639.1	-85.6432
639.2	-85.6432
639.3	-85.6433
639.4	-85.6434
639.5	-85.6435
639.6	-85.6435
639.7	-85.6436
639.8	-85.6437
639.9	-85.6438
640	-85.6438
640.1	-85.6439
640.2	-85.644
640.3	-85.644
640.4	-85.6441
640.5	-85.6442
640.6	-85.6443
640.7	-85.6443
640.8	-85.6444
640.9	-85.6445
641	-85.6445
641.1	-85.6446
641.2	-85.6447
641.3	-85.6448
641.4	-85.6448
641.5	-85.6449
641.6	-85.645
641.7	-85.645
641.8	-85.6451
641.9	-85.6452
642	-85.6453
642.1	-85.6453
642.2	-85.6454
642.3	-85.6455
642.4	-85.6455
642.5	-85.6456
642.6	-85.6457
642.7	-85.6458
642.8	-85.6458
642.9	-85.6459
643	-85.646
643.1	-85.646
643.2	-85.6461
643.3	-85.6462
643.4	-85.6463
643.5	-85.6463
643.6	-85.6464
643.7	-85.6465
643.8	-85.6465
643.9	-85.6466
644	-85.6467
644.1	-85.6467
644.2	-85.6468
644.3	-85.6469
644.4	-85.647
644.5	-85.647
644.6	-85.6471
644.7	-85.6472
644.8	-85.6472
644.9	-85.6473
645	-85.6474
645.1	-85.6475
645.2	-85.6475
645.3	-85.6476
645.4	-85.6477
645.5	-85.6477
645.6	-85.6478
645.7	-85.6479
645.8	-85.6479
645.9	-85.648
646	-85.6481
646.1	-85.6482
646.2	-85.6482
646.3	-85.6483
646.4	-85.6484
646.5	-85.6484
646.6	-85.6485
646.7	-85.6486
646.8	-85.6486
646.9	-85.6487
647	-85.6488
647.1	-85.6489
647.2	-85.6489
647.3	-85.649
647.4	-85.6491
647.5	-85.6491
647.6	-85.6492
647.7	-85.6493
647.8	-85.6493
647.9	-85.6494
648	-85.6495
648.1	-85.6496
648.2	-85.6496
648.3	-85.6497
648.4	-85.6498
648.5	-85.6498
648.6	-85.6499
648.7	-85.65
648.8	-85.65
648.9	-85.6501
649	-85.6502
649.1	-85.6502
649.2	-85.6503
649.3	-85.6504
649.4	-85.6504
649.5	-85.6505
649.6	-85.6506
649.7	-85.6507
649.8	-85.6507
649.9	-85.6508
650	-85.6509
650.1	-85.6509
650.2	-85.651
650.3	-85.6511
650.4	-85.6511
650.5	-85.6512
650.6	-85.6513
650.7	-85.6513
650.8	-85.6514
650.9	-85.6515
651	-85.6516
651.1	-85.6516
651.2	-85.6517
651.3	-85.6518
651.4	-85.6518
651.5	-85.6519
651.6	-85.652
651.7	-85.652
651.8	-85.6521
651.9	-85.6522
652	-85.6522
652.1	-85.6523
652.2	-85.6524
652.3	-85.6524
652.4	-85.6525
652.5	-85.6526
652.6	-85.6526
652.7	-85.6527
652.8	-85.6528
652.9	-85.6528
653	-85.6529
653.1	-85.653
653.2	-85.6531
653.3	-85.6531
653.4	-85.6532
653.5	-85.6533
653.6	-85.6533
653.7	-85.6534
653.8	-85.6535
653.9	-85.6535
654	-85.6536
654.1	-85.6537
654.2	-85.6537
654.3	-85.6538
654.4	-85.6539
654.5	-85.6539
654.6	-85.654
654.7	-85.6541
654.8	-85.6541
654.9	-85.6542
655	-85.6543
655.1	-85.6543
655.2	-85.6544
655.3	-85.6545
655.4	-85.6545
655.5	-85.6546
655.6	-85.6547
655.7	-85.6547
655.8	-85.6548
655.9	-85.6549
656	-85.6549
656.1	-85.655
656.2	-85.6551
656.3	-85.6551
656.4	-85.6552
656.5	-85.6553
656.6	-85.6553
656.7	-85.6554
656.8	-85.6555
656.9	-85.6555
657	-85.6556
657.1	-85.6557
657.2	-85.6557
657.3	-85.6558
657.4	-85.6559
657.5	-85.6559
657.6	-85.656
657.7	-85.6561
657.8	-85.6561
657.9	-85.6562
658	-85.6563
658.1	-85.6563
658.2	-85.6564
658.3	-85.6565
658.4	-85.6565
658.5	-85.6566
658.6	-85.6567
658.7	-85.6567
658.8	-85.6568
658.9	-85.6569
659	-85.6569
659.1	-85.657
659.2	-85.6571
659.3	-85.6571
659.4	-85.6572
659.5	-85.6573
659.6	-85.6573
659.7	-85.6574
659.8	-85.6575
659.9	-85.6575
660	-85.6576
660.1	-85.6577
660.2	-85.6577
660.3	-85.6578
660.4	-85.6579
660.5	-85.6579
660.6	-85.658
660.7	-85.6581
660.8	-85.6581
660.9	-85.6582
661	-85.6583
661.1	-85.6583
661.2	-85.6584
661.3	-85.6584
661.4	-85.6585
661.5	-85.6586
661.6	-85.6586
661.7	-85.6587
661.8	-85.6588
661.9	-85.6588
662	-85.6589
662.1	-85.659
662.2	-85.659
662.3	-85.6591
662.4	-85.6592
662.5	-85.6592
662.6	-85.6593
662.7	-85.6594
662.8	-85.6594
662.9	-85.6595
663	-85.6596
663.1	-85.6596
663.2	-85.6597
663.3	-85.6598
663.4	-85.6598
663.5	-85.6599
663.6	-85.6599
663.7	-85.66
663.8	-85.6601
663.9	-85.6601
664	-85.6602
664.1	-85.6603
664.2	-85.6603
664.3	-85.6604
664.4	-85.6605
664.5	-85.6605
664.6	-85.6606
664.7	-85.6607
664.8	-85.6607
664.9	-85.6608
665	-85.6609
665.1	-85.6609
665.2	-85.661
665.3	-85.661
665.4	-85.6611
665.5	-85.6612
665.6	-85.6612
665.7	-85.6613
665.8	-85.6614
665.9	-85.6614
666	-85.6615
666.1	-85.6616
666.2	-85.6616
666.3	-85.6617
666.4	-85.6617
666.5	-85.6618
666.6	-85.6619
666.7	-85.6619
666.8	-85.662
666.9	-85.6621
667	-85.6621
667.1	-85.6622
667.2	-85.6623
667.3	-85.6623
667.4	-85.6624
667.5	-85.6625
667.6	-85.6625
667.7	-85.6626
667.8	-85.6626
667.9	-85.6627
668	-85.6628
668.1	-85.6628
668.2	-85.6629
668.3	-85.663
668.4	-85.663
668.5	-85.6631
668.6	-85.6632
668.7	-85.6632
668.8	-85.6633
668.9	-85.6633
669	-85.6634
669.1	-85.6635
669.2	-85.6635
669.3	-85.6636
669.4	-85.6637
669.5	-85.6637
669.6	-85.6638
669.7	-85.6638
669.8	-85.6639
669.9	-85.664
670	-85.664
670.1	-85.6641
670.2	-85.6642
670.3	-85.6642
670.4	-85.6643
670.5	-85.6643
670.6	-85.6644
670.7	-85.6645
670.8	-85.6645
670.9	-85.6646
671	-85.6647
671.1	-85.6647
671.2	-85.6648
671.3	-85.6649
671.4	-85.6649
671.5	-85.665
671.6	-85.665
671.7	-85.6651
671.8	-85.6652
671.9	-85.6652
672	-85.6653
672.1	-85.6654
672.2	-85.6654
672.3	-85.6655
672.4	-85.6655
672.5	-85.6656
672.6	-85.6657
672.7	-85.6657
672.8	-85.6658
672.9	-85.6658
673	-85.6659
673.1	-85.666
673.2	-85.666
673.3	-85.6661
673.4	-85.6662
673.5	-85.6662
673.6	-85.6663
673.7	-85.6663
673.8	-85.6664
673.9	-85.6665
674	-85.6665
674.1	-85.6666
674.2	-85.6667
674.3	-85.6667
674.4	-85.6668
674.5	-85.6668
674.6	-85.6669
674.7	-85.667
674.8	-85.667
674.9	-85.6671
675	-85.6671
675.1	-85.6672
675.2	-85.6673
675.3	-85.6673
675.4	-85.6674
675.5	-85.6675
675.6	-85.6675
675.7	-85.6676
675.8	-85.6676
675.9	-85.6677
676	-85.6678
676.1	-85.6678
676.2	-85.6679
676.3	-85.6679
676.4	-85.668
676.5	-85.6681
676.6	-85.6681
676.7	-85.6682
676.8	-85.6683
676.9	-85.6683
677	-85.6684
677.1	-85.6684
677.2	-85.6685
677.3	-85.6686
677.4	-85.6686
677.5	-85.6687
677.6	-85.6687
677.7	-85.6688
677.8	-85.6689
677.9	-85.6689
678	-85.669
678.1	-85.669
678.2	-85.6691
678.3	-85.6692
678.4	-85.6692
678.5	-85.6693
678.6	-85.6693
678.7	-85.6694
678.8	-85.6695
678.9	-85.6695
679	-85.6696
679.1	-85.6697
679.2	-85.6697
679.3	-85.6698
679.4	-85.6698
679.5	-85.6699
679.6	-85.67
679.7	-85.67
679.8	-85.6701
679.9	-85.6701
680	-85.6702
680.1	-85.6703
680.2	-85.6703
680.3	-85.6704
680.4	-85.6704
680.5	-85.6705
680.6	-85.6706
680.7	-85.6706
680.8	-85.6707
680.9	-85.6707
681	-85.6708
681.1	-85.6709
681.2	-85.6709
681.3	-85.671
681.4	-85.671
681.5	-85.6711
681.6	-85.6712
681.7	-85.6712
681.8	-85.6713
681.9	-85.6713
682	-85.6714
682.1	-85.6715
682.2	-85.6715
682.3	-85.6716
682.4	-85.6716
682.5	-85.6717
682.6	-85.6718
682.7	-85.6718
682.8	-85.6719
682.9	-85.6719
683	-85.672
683.1	-85.672
683.2	-85.6721
683.3	-85.6722
683.4	-85.6722
683.5	-85.6723
683.6	-85.6723
683.7	-85.6724
683.8	-85.6725
683.9	-85.6725
684	-85.6726
684.1	-85.6726
684.2	-85.6727
684.3	-85.6728
684.4	-85.6728
684.5	-85.6729
684.6	-85.6729
684.7	-85.673
684.8	-85.6731
684.9	-85.6731
685	-85.6732
685.1	-85.6732
685.2	-85.6733
685.3	-85.6734
685.4	-85.6734
685.5	-85.6735
685.6	-85.6735
685.7	-85.6736
685.8	-85.6736
685.9	-85.6737
686	-85.6738
686.1	-85.6738
686.2	-85.6739
686.3	-85.6739
686.4	-85.674
686.5	-85.6741
686.6	-85.6741
686.7	-85.6742
686.8	-85.6742
686.9	-85.6743
687	-85.6743
687.1	-85.6744
687.2	-85.6745
687.3	-85.6745
687.4	-85.6746
687.5	-85.6746
687.6	-85.6747
687.7	-85.6748
687.8	-85.6748
687.9	-85.6749
688	-85.6749
688.1	-85.675
688.2	-85.675
688.3	-85.6751
688.4	-85.6752
688.5	-85.6752
688.6	-85.6753
688.7	-85.6753
688.8	-85.6754
688.9	-85.6755
689	-85.6755
689.1	-85.6756
689.2	-85.6756
689.3	-85.6757
689.4	-85.6757
689.5	-85.6758
689.6	-85.6759
689.7	-85.6759
689.8	-85.676
689.9	-85.676
690	-85.6761
690.1	-85.6761
690.2	-85.6762
690.3	-85.6763
690.4	-85.6763
690.5	-85.6764
690.6	-85.6764
690.7	-85.6765
690.8	-85.6765
690.9	-85.6766
691	-85.6767
691.1	-85.6767
691.2	-85.6768
691.3	-85.6768
691.4	-85.6769
691.5	-85.6769
691.6	-85.677
691.7	-85.6771
691.8	-85.6771
691.9	-85.6772
692	-85.6772
692.1	-85.6773
692.2	-85.6774
692.3	-85.6774
692.4	-85.6775
692.5	-85.6775
692.6	-85.6776
692.7	-85.6776
692.8	-85.6777
692.9	-85.6777
693	-85.6778
693.1	-85.6779
693.2	-85.6779
693.3	-85.678
693.4	-85.678
693.5	-85.6781
693.6	-85.6781
693.7	-85.6782
693.8	-85.6783
693.9	-85.6783
694	-85.6784
694.1	-85.6784
694.2	-85.6785
694.3	-85.6785
694.4	-85.6786
694.5	-85.6787
694.6	-85.6787
694.7	-85.6788
694.8	-85.6788
694.9	-85.6789
695	-85.6789
695.1	-85.679
695.2	-85.6791
695.3	-85.6791
695.4	-85.6792
695.5	-85.6792
695.6	-85.6793
695.7	-85.6793
695.8	-85.6794
695.9	-85.6794
696	-85.6795
696.1	-85.6796
696.2	-85.6796
696.3	-85.6797
696.4	-85.6797
696.5	-85.6798
696.6	-85.6798
696.7	-85.6799
696.8	-85.68
696.9	-85.68
697	-85.6801
697.1	-85.6801
697.2	-85.6802
697.3	-85.6802
697.4	-85.6803
697.5	-85.6803
697.6	-85.6804
697.7	-85.6805
697.8	-85.6805
697.9	-85.6806
698	-85.6806
698.1	-85.6807
698.2	-85.6807
698.3	-85.6808
698.4	-85.6808
698.5	-85.6809
698.6	-85.681
698.7	-85.681
698.8	-85.6811
698.9	-85.6811
699	-85.6812
699.1	-85.6812
699.2	-85.6813
699.3	-85.6813
699.4	-85.6814
699.5	-85.6815
699.6	-85.6815
699.7	-85.6816
699.8	-85.6816
699.9	-85.6817
700	-85.6817
700.1	-85.6818
700.2	-85.6818
700.3	-85.6819
700.4	-85.6819
700.5	-85.682
700.6	-85.6821
700.7	-85.6821
700.8	-85.6822
700.9	-85.6822
701	-85.6823
701.1	-85.6823
701.2	-85.6824
701.3	-85.6824
701.4	-85.6825
701.5	-85.6826
701.6	-85.6826
701.7	-85.6827
701.8	-85.6827
701.9	-85.6828
702	-85.6828
702.1	-85.6829
702.2	-85.6829
702.3	-85.683
702.4	-85.683
702.5	-85.6831
702.6	-85.6832
702.7	-85.6832
702.8	-85.6833
702.9	-85.6833
703	-85.6834
703.1	-85.6834
703.2	-85.6835
703.3	-85.6835
703.4	-85.6836
703.5	-85.6836
703.6	-85.6837
703.7	-85.6838
703.8	-85.6838
703.9	-85.6839
704	-85.6839
704.1	-85.684
704.2	-85.684
704.3	-85.6841
704.4	-85.6841
704.5	-85.6842
704.6	-85.6842
704.7	-85.6843
704.8	-85.6843
704.9	-85.6844
705	-85.6845
705.1	-85.6845
705.2	-85.6846
705.3	-85.6846
705.4	-85.6847
705.5	-85.6847
705.6	-85.6848
705.7	-85.6848
705.8	-85.6849
705.9	-85.6849
706	-85.685
706.1	-85.685
706.2	-85.6851
706.3	-85.6852
706.4	-85.6852
706.5	-85.6853
706.6	-85.6853
706.7	-85.6854
706.8	-85.6854
706.9	-85.6855
707	-85.6855
707.1	-85.6856
707.2	-85.6856
707.3	-85.6857
707.4	-85.6857
707.5	-85.6858
707.6	-85.6859
707.7	-85.6859
707.8	-85.686
707.9	-85.686
708	-85.6861
708.1	-85.6861
708.2	-85.6862
708.3	-85.6862
708.4	-85.6863
708.5	-85.6863
708.6	-85.6864
708.7	-85.6864
708.8	-85.6865
708.9	-85.6865
709	-85.6866
709.1	-85.6867
709.2	-85.6867
709.3	-85.6868
709.4	-85.6868
709.5	-85.6869
709.6	-85.6869
709.7	-85.687
709.8	-85.687
709.9	-85.6871
710	-85.6871
710.1	-85.6872
710.2	-85.6872
710.3	-85.6873
710.4	-85.6873
710.5	-85.6874
710.6	-85.6874
710.7	-85.6875
710.8	-85.6875
710.9	-85.6876
711	-85.6877
711.1	-85.6877
711.2	-85.6878
711.3	-85.6878
711.4	-85.6879
711.5	-85.6879
711.6	-85.688
711.7	-85.688
711.8	-85.6881
711.9	-85.6881
712	-85.6882
712.1	-85.6882
712.2	-85.6883
712.3	-85.6883
712.4	-85.6884
712.5	-85.6884
712.6	-85.6885
712.7	-85.6885
712.8	-85.6886
712.9	-85.6886
713	-85.6887
713.1	-85.6888
713.2	-85.6888
713.3	-85.6889
713.4	-85.6889
713.5	-85.689
713.6	-85.689
713.7	-85.6891
713.8	-85.6891
713.9	-85.6892
714	-85.6892
714.1	-85.6893
714.2	-85.6893
714.3	-85.6894
714.4	-85.6894
714.5	-85.6895
714.6	-85.6895
714.7	-85.6896
714.8	-85.6896
714.9	-85.6897
715	-85.6897
715.1	-85.6898
715.2	-85.6898
715.3	-85.6899
715.4	-85.6899
715.5	-85.69
715.6	-85.69
715.7	-85.6901
715.8	-85.6902
715.9	-85.6902
716	-85.6903
716.1	-85.6903
716.2	-85.6904
716.3	-85.6904
716.4	-85.6905
716.5	-85.6905
716.6	-85.6906
716.7	-85.6906
716.8	-85.6907
716.9	-85.6907
717	-85.6908
717.1	-85.6908
717.2	-85.6909
717.3	-85.6909
717.4	-85.691
717.5	-85.691
717.6	-85.6911
717.7	-85.6911
717.8	-85.6912
717.9	-85.6912
718	-85.6913
718.1	-85.6913
718.2	-85.6914
718.3	-85.6914
718.4	-85.6915
718.5	-85.6915
718.6	-85.6916
718.7	-85.6916
718.8	-85.6917
718.9	-85.6917
719	-85.6918
719.1	-85.6918
719.2	-85.6919
719.3	-85.6919
719.4	-85.692
719.5	-85.692
719.6	-85.6921
719.7	-85.6921
719.8	-85.6922
719.9	-85.6922
720	-85.6923
720.1	-85.6923
720.2	-85.6924
720.3	-85.6924
720.4	-85.6925
720.5	-85.6925
720.6	-85.6926
720.7	-85.6926
720.8	-85.6927
720.9	-85.6927
721	-85.6928
721.1	-85.6928
721.2	-85.6929
721.3	-85.6929
721.4	-85.693
721.5	-85.693
721.6	-85.6931
721.7	-85.6931
721.8	-85.6932
721.9	-85.6933
722	-85.6933
722.1	-85.6934
722.2	-85.6934
722.3	-85.6935
722.4	-85.6935
722.5	-85.6936
722.6	-85.6936
722.7	-85.6937
722.8	-85.6937
722.9	-85.6938
723	-85.6938
723.1	-85.6939
723.2	-85.6939
723.3	-85.6939
723.4	-85.694
723.5	-85.694
723.6	-85.6941
723.7	-85.6941
723.8	-85.6942
723.9	-85.6942
724	-85.6943
724.1	-85.6943
724.2	-85.6944
724.3	-85.6944
724.4	-85.6945
724.5	-85.6945
724.6	-85.6946
724.7	-85.6946
724.8	-85.6947
724.9	-85.6947
725	-85.6948
725.1	-85.6948
725.2	-85.6949
725.3	-85.6949
725.4	-85.695
725.5	-85.695
725.6	-85.6951
725.7	-85.6951
725.8	-85.6952
725.9	-85.6952
726	-85.6953
726.1	-85.6953
726.2	-85.6954
726.3	-85.6954
726.4	-85.6955
726.5	-85.6955
726.6	-85.6956
726.7	-85.6956
726.8	-85.6957
726.9	-85.6957
727	-85.6958
727.1	-85.6958
727.2	-85.6959
727.3	-85.6959
727.4	-85.696
727.5	-85.696
727.6	-85.6961
727.7	-85.6961
727.8	-85.6962
727.9	-85.6962
728	-85.6963
728.1	-85.6963
728.2	-85.6964
728.3	-85.6964
728.4	-85.6965
728.5	-85.6965
728.6	-85.6966
728.7	-85.6966
728.8	-85.6967
728.9	-85.6967
729	-85.6968
729.1	-85.6968
729.2	-85.6969
729.3	-85.6969
729.4	-85.6969
729.5	-85.697
729.6	-85.697
729.7	-85.6971
729.8	-85.6971
729.9	-85.6972
730	-85.6972
730.1	-85.6973
730.2	-85.6973
730.3	-85.6974
730.4	-85.6974
730.5	-85.6975
730.6	-85.6975
730.7	-85.6976
730.8	-85.6976
730.9	-85.6977
731	-85.6977
731.1	-85.6978
731.2	-85.6978
731.3	-85.6979
731.4	-85.6979
731.5	-85.698
731.6	-85.698
731.7	-85.6981
731.8	-85.6981
731.9	-85.6982
732	-85.6982
732.1	-85.6983
732.2	-85.6983
732.3	-85.6983
732.4	-85.6984
732.5	-85.6984
732.6	-85.6985
732.7	-85.6985
732.8	-85.6986
732.9	-85.6986
733	-85.6987
733.1	-85.6987
733.2	-85.6988
733.3	-85.6988
733.4	-85.6989
733.5	-85.6989
733.6	-85.699
733.7	-85.699
733.8	-85.6991
733.9	-85.6991
734	-85.6992
734.1	-85.6992
734.2	-85.6993
734.3	-85.6993
734.4	-85.6994
734.5	-85.6994
734.6	-85.6994
734.7	-85.6995
734.8	-85.6995
734.9	-85.6996
735	-85.6996
735.1	-85.6997
735.2	-85.6997
735.3	-85.6998
735.4	-85.6998
735.5	-85.6999
735.6	-85.6999
735.7	-85.7
735.8	-85.7
735.9	-85.7001
736	-85.7001
736.1	-85.7002
736.2	-85.7002
736.3	-85.7002
736.4	-85.7003
736.5	-85.7003
736.6	-85.7004
736.7	-85.7004
736.8	-85.7005
736.9	-85.7005
737	-85.7006
737.1	-85.7006
737.2	-85.7007
737.3	-85.7007
737.4	-85.7008
737.5	-85.7008
737.6	-85.7009
737.7	-85.7009
737.8	-85.701
737.9	-85.701
738	-85.701
738.1	-85.7011
738.2	-85.7011
738.3	-85.7012
738.4	-85.7012
738.5	-85.7013
738.6	-85.7013
738.7	-85.7014
738.8	-85.7014
738.9	-85.7015
739	-85.7015
739.1	-85.7016
739.2	-85.7016
739.3	-85.7017
739.4	-85.7017
739.5	-85.7017
739.6	-85.7018
739.7	-85.7018
739.8	-85.7019
739.9	-85.7019
740	-85.702
740.1	-85.702
740.2	-85.7021
740.3	-85.7021
740.4	-85.7022
740.5	-85.7022
740.6	-85.7023
740.7	-85.7023
740.8	-85.7023
740.9	-85.7024
741	-85.7024
741.1	-85.7025
741.2	-85.7025
741.3	-85.7026
741.4	-85.7026
741.5	-85.7027
741.6	-85.7027
741.7	-85.7028
741.8	-85.7028
741.9	-85.7029
742	-85.7029
742.1	-85.7029
742.2	-85.703
742.3	-85.703
742.4	-85.7031
742.5	-85.7031
742.6	-85.7032
742.7	-85.7032
742.8	-85.7033
742.9	-85.7033
743	-85.7034
743.1	-85.7034
743.2	-85.7035
743.3	-85.7035
743.4	-85.7035
743.5	-85.7036
743.6	-85.7036
743.7	-85.7037
743.8	-85.7037
743.9	-85.7038
744	-85.7038
744.1	-85.7039
744.2	-85.7039
744.3	-85.704
744.4	-85.704
744.5	-85.704
744.6	-85.7041
744.7	-85.7041
744.8	-85.7042
744.9	-85.7042
745	-85.7043
745.1	-85.7043
745.2	-85.7044
745.3	-85.7044
745.4	-85.7045
745.5	-85.7045
745.6	-85.7045
745.7	-85.7046
745.8	-85.7046
745.9	-85.7047
746	-85.7047
746.1	-85.7048
746.2	-85.7048
746.3	-85.7049
746.4	-85.7049
746.5	-85.7049
746.6	-85.705
746.7	-85.705
746.8	-85.7051
746.9	-85.7051
747	-85.7052
747.1	-85.7052
747.2	-85.7053
747.3	-85.7053
747.4	-85.7054
747.5	-85.7054
747.6	-85.7054
747.7	-85.7055
747.8	-85.7055
747.9	-85.7056
748	-85.7056
748.1	-85.7057
748.2	-85.7057
748.3	-85.7058
748.4	-85.7058
748.5	-85.7058
748.6	-85.7059
748.7	-85.7059
748.8	-85.706
748.9	-85.706
749	-85.7061
749.1	-85.7061
749.2	-85.7062
749.3	-85.7062
749.4	-85.7062
749.5	-85.7063
749.6	-85.7063
749.7	-85.7064
749.8	-85.7064
749.9	-85.7065
750	-85.7065
750.1	-85.7066
750.2	-85.7066
750.3	-85.7066
750.4	-85.7067
750.5	-85.7067
750.6	-85.7068
750.7	-85.7068
750.8	-85.7069
750.9	-85.7069
751	-85.707
751.1	-85.707
751.2	-85.707
751.3	-85.7071
751.4	-85.7071
751.5	-85.7072
751.6	-85.7072
751.7	-85.7073
751.8	-85.7073
751.9	-85.7074
752	-85.7074
752.1	-85.7074
752.2	-85.7075
752.3	-85.7075
752.4	-85.7076
752.5	-85.7076
752.6	-85.7077
752.7	-85.7077
752.8	-85.7077
752.9	-85.7078
753	-85.7078
753.1	-85.7079
753.2	-85.7079
753.3	-85.708
753.4	-85.708
753.5	-85.7081
753.6	-85.7081
753.7	-85.7081
753.8	-85.7082
753.9	-85.7082
754	-85.7083
754.1	-85.7083
754.2	-85.7084
754.3	-85.7084
754.4	-85.7084
754.5	-85.7085
754.6	-85.7085
754.7	-85.7086
754.8	-85.7086
754.9	-85.7087
755	-85.7087
755.1	-85.7088
755.2	-85.7088
755.3	-85.7088
755.4	-85.7089
755.5	-85.7089
755.6	-85.709
755.7	-85.709
755.8	-85.7091
755.9	-85.7091
756	-85.7091
756.1	-85.7092
756.2	-85.7092
756.3	-85.7093
756.4	-85.7093
756.5	-85.7094
756.6	-85.7094
756.7	-85.7094
756.8	-85.7095
756.9	-85.7095
757	-85.7096
757.1	-85.7096
757.2	-85.7097
757.3	-85.7097
757.4	-85.7097
757.5	-85.7098
757.6	-85.7098
757.7	-85.7099
757.8	-85.7099
757.9	-85.71
758	-85.71
758.1	-85.71
758.2	-85.7101
758.3	-85.7101
758.4	-85.7102
758.5	-85.7102
758.6	-85.7103
758.7	-85.7103
758.8	-85.7103
758.9	-85.7104
759	-85.7104
759.1	-85.7105
759.2	-85.7105
759.3	-85.7106
759.4	-85.7106
759.5	-85.7106
759.6	-85.7107
759.7	-85.7107
759.8	-85.7108
759.9	-85.7108
760	-85.7109
760.1	-85.7109
760.2	-85.7109
760.3	-85.711
760.4	-85.711
760.5	-85.7111
760.6	-85.7111
760.7	-85.7112
760.8	-85.7112
760.9	-85.7112
761	-85.7113
761.1	-85.7113
761.2	-85.7114
761.3	-85.7114
761.4	-85.7115
761.5	-85.7115
761.6	-85.7115
761.7	-85.7116
761.8	-85.7116
761.9	-85.7117
762	-85.7117
762.1	-85.7117
762.2	-85.7118
762.3	-85.7118
762.4	-85.7119
762.5	-85.7119
762.6	-85.712
762.7	-85.712
762.8	-85.712
762.9	-85.7121
763	-85.7121
763.1	-85.7122
763.2	-85.7122
763.3	-85.7123
763.4	-85.7123
763.5	-85.7123
763.6	-85.7124
763.7	-85.7124
763.8	-85.7125
763.9	-85.7125
764	-85.7125
764.1	-85.7126
764.2	-85.7126
764.3	-85.7127
764.4	-85.7127
764.5	-85.7128
764.6	-85.7128
764.7	-85.7128
764.8	-85.7129
764.9	-85.7129
765	-85.713
765.1	-85.713
765.2	-85.713
765.3	-85.7131
765.4	-85.7131
765.5	-85.7132
765.6	-85.7132
765.7	-85.7133
765.8	-85.7133
765.9	-85.7133
766	-85.7134
766.1	-85.7134
766.2	-85.7135
766.3	-85.7135
766.4	-85.7135
766.5	-85.7136
766.6	-85.7136
766.7	-85.7137
766.8	-85.7137
766.9	-85.7137
767	-85.7138
767.1	-85.7138
767.2	-85.7139
767.3	-85.7139
767.4	-85.714
767.5	-85.714
767.6	-85.714
767.7	-85.7141
767.8	-85.7141
767.9	-85.7142
768	-85.7142
768.1	-85.7142
768.2	-85.7143
768.3	-85.7143
768.4	-85.7144
768.5	-85.7144
768.6	-85.7144
768.7	-85.7145
768.8	-85.7145
768.9	-85.7146
769	-85.7146
769.1	-85.7147
769.2	-85.7147
769.3	-85.7147
769.4	-85.7148
769.5	-85.7148
769.6	-85.7149
769.7	-85.7149
769.8	-85.7149
769.9	-85.715
770	-85.715
770.1	-85.7151
770.2	-85.7151
770.3	-85.7151
770.4	-85.7152
770.5	-85.7152
770.6	-85.7153
770.7	-85.7153
770.8	-85.7153
770.9	-85.7154
771	-85.7154
771.1	-85.7155
771.2	-85.7155
771.3	-85.7155
771.4	-85.7156
771.5	-85.7156
771.6	-85.7157
771.7	-85.7157
771.8	-85.7157
771.9	-85.7158
772	-85.7158
772.1	-85.7159
772.2	-85.7159
772.3	-85.716
772.4	-85.716
772.5	-85.716
772.6	-85.7161
772.7	-85.7161
772.8	-85.7162
772.9	-85.7162
773	-85.7162
773.1	-85.7163
773.2	-85.7163
773.3	-85.7164
773.4	-85.7164
773.5	-85.7164
773.6	-85.7165
773.7	-85.7165
773.8	-85.7166
773.9	-85.7166
774	-85.7166
774.1	-85.7167
774.2	-85.7167
774.3	-85.7168
774.4	-85.7168
774.5	-85.7168
774.6	-85.7169
774.7	-85.7169
774.8	-85.717
774.9	-85.717
775	-85.717
775.1	-85.7171
775.2	-85.7171
775.3	-85.7172
775.4	-85.7172
775.5	-85.7172
775.6	-85.7173
775.7	-85.7173
775.8	-85.7174
775.9	-85.7174
776	-85.7174
776.1	-85.7175
776.2	-85.7175
776.3	-85.7175
776.4	-85.7176
776.5	-85.7176
776.6	-85.7177
776.7	-85.7177
776.8	-85.7177
776.9	-85.7178
777	-85.7178
777.1	-85.7179
777.2	-85.7179
777.3	-85.7179
777.4	-85.718
777.5	-85.718
777.6	-85.7181
777.7	-85.7181
777.8	-85.7181
777.9	-85.7182
778	-85.7182
778.1	-85.7183
778.2	-85.7183
778.3	-85.7183
778.4	-85.7184
778.5	-85.7184
778.6	-85.7185
778.7	-85.7185
778.8	-85.7185
778.9	-85.7186
779	-85.7186
779.1	-85.7187
779.2	-85.7187
779.3	-85.7187
779.4	-85.7188
779.5	-85.7188
779.6	-85.7188
779.7	-85.7189
779.8	-85.7189
779.9	-85.719
780	-85.719
780.1	-85.719
780.2	-85.7191
780.3	-85.7191
780.4	-85.7192
780.5	-85.7192
780.6	-85.7192
780.7	-85.7193
780.8	-85.7193
780.9	-85.7194
781	-85.7194
781.1	-85.7194
781.2	-85.7195
781.3	-85.7195
781.4	-85.7195
781.5	-85.7196
781.6	-85.7196
781.7	-85.7197
781.8	-85.7197
781.9	-85.7197
782	-85.7198
782.1	-85.7198
782.2	-85.7199
782.3	-85.7199
782.4	-85.7199
782.5	-85.72
782.6	-85.72
782.7	-85.7201
782.8	-85.7201
782.9	-85.7201
783	-85.7202
783.1	-85.7202
783.2	-85.7202
783.3	-85.7203
783.4	-85.7203
783.5	-85.7204
783.6	-85.7204
783.7	-85.7204
783.8	-85.7205
783.9	-85.7205
784	-85.7206
784.1	-85.7206
784.2	-85.7206
784.3	-85.7207
784.4	-85.7207
784.5	-85.7207
784.6	-85.7208
784.7	-85.7208
784.8	-85.7209
784.9	-85.7209
785	-85.7209
785.1	-85.721
785.2	-85.721
785.3	-85.721
785.4	-85.7211
785.5	-85.7211
785.6	-85.7212
785.7	-85.7212
785.8	-85.7212
785.9	-85.7213
786	-85.7213
786.1	-85.7214
786.2	-85.7214
786.3	-85.7214
786.4	-85.7215
786.5	-85.7215
786.6	-85.7215
786.7	-85.7216
786.8	-85.7216
786.9	-85.7217
787	-85.7217
787.1	-85.7217
787.2	-85.7218
787.3	-85.7218
787.4	-85.7218
787.5	-85.7219
787.6	-85.7219
787.7	-85.722
787.8	-85.722
787.9	-85.722
788	-85.7221
788.1	-85.7221
788.2	-85.7221
788.3	-85.7222
788.4	-85.7222
788.5	-85.7223
788.6	-85.7223
788.7	-85.7223
788.8	-85.7224
788.9	-85.7224
789	-85.7224
789.1	-85.7225
789.2	-85.7225
789.3	-85.7226
789.4	-85.7226
789.5	-85.7226
789.6	-85.7227
789.7	-85.7227
789.8	-85.7227
789.9	-85.7228
790	-85.7228
790.1	-85.7229
790.2	-85.7229
790.3	-85.7229
790.4	-85.723
790.5	-85.723
790.6	-85.723
790.7	-85.7231
790.8	-85.7231
790.9	-85.7232
791	-85.7232
791.1	-85.7232
791.2	-85.7233
791.3	-85.7233
791.4	-85.7233
791.5	-85.7234
791.6	-85.7234
791.7	-85.7235
791.8	-85.7235
791.9	-85.7235
792	-85.7236
792.1	-85.7236
792.2	-85.7236
792.3	-85.7237
792.4	-85.7237
792.5	-85.7238
792.6	-85.7238
792.7	-85.7238
792.8	-85.7239
792.9	-85.7239
793	-85.7239
793.1	-85.724
793.2	-85.724
793.3	-85.724
793.4	-85.7241
793.5	-85.7241
793.6	-85.7242
793.7	-85.7242
793.8	-85.7242
793.9	-85.7243
794	-85.7243
794.1	-85.7243
794.2	-85.7244
794.3	-85.7244
794.4	-85.7245
794.5	-85.7245
794.6	-85.7245
794.7	-85.7246
794.8	-85.7246
794.9	-85.7246
795	-85.7247
795.1	-85.7247
795.2	-85.7247
795.3	-85.7248
795.4	-85.7248
795.5	-85.7249
795.6	-85.7249
795.7	-85.7249
795.8	-85.725
795.9	-85.725
796	-85.725
796.1	-85.7251
796.2	-85.7251
796.3	-85.7251
796.4	-85.7252
796.5	-85.7252
796.6	-85.7253
796.7	-85.7253
796.8	-85.7253
796.9	-85.7254
797	-85.7254
797.1	-85.7254
797.2	-85.7255
797.3	-85.7255
797.4	-85.7255
797.5	-85.7256
797.6	-85.7256
797.7	-85.7257
797.8	-85.7257
797.9	-85.7257
798	-85.7258
798.1	-85.7258
798.2	-85.7258
798.3	-85.7259
798.4	-85.7259
798.5	-85.7259
798.6	-85.726
798.7	-85.726
798.8	-85.7261
798.9	-85.7261
799	-85.7261
799.1	-85.7262
799.2	-85.7262
799.3	-85.7262
799.4	-85.7263
799.5	-85.7263
799.6	-85.7263
799.7	-85.7264
799.8	-85.7264
799.9	-85.7264
800	-85.7265
800.1	-85.7265
800.2	-85.7266
800.3	-85.7266
800.4	-85.7266
800.5	-85.7267
800.6	-85.7267
800.7	-85.7267
800.8	-85.7268
800.9	-85.7268
801	-85.7268
801.1	-85.7269
801.2	-85.7269
801.3	-85.7269
801.4	-85.727
801.5	-85.727
801.6	-85.7271
801.7	-85.7271
801.8	-85.7271
801.9	-85.7272
802	-85.7272
802.1	-85.7272
802.2	-85.7273
802.3	-85.7273
802.4	-85.7273
802.5	-85.7274
802.6	-85.7274
802.7	-85.7274
802.8	-85.7275
802.9	-85.7275
803	-85.7276
803.1	-85.7276
803.2	-85.7276
803.3	-85.7277
803.4	-85.7277
803.5	-85.7277
803.6	-85.7278
803.7	-85.7278
803.8	-85.7278
803.9	-85.7279
804	-85.7279
804.1	-85.7279
804.2	-85.728
804.3	-85.728
804.4	-85.728
804.5	-85.7281
804.6	-85.7281
804.7	-85.7281
804.8	-85.7282
804.9	-85.7282
805	-85.7283
805.1	-85.7283
805.2	-85.7283
805.3	-85.7284
805.4	-85.7284
805.5	-85.7284
805.6	-85.7285
805.7	-85.7285
805.8	-85.7285
805.9	-85.7286
806	-85.7286
806.1	-85.7286
806.2	-85.7287
806.3	-85.7287
806.4	-85.7287
806.5	-85.7288
806.6	-85.7288
806.7	-85.7288
806.8	-85.7289
806.9	-85.7289
807	-85.729
807.1	-85.729
807.2	-85.729
807.3	-85.7291
807.4	-85.7291
807.5	-85.7291
807.6	-85.7292
807.7	-85.7292
807.8	-85.7292
807.9	-85.7293
808	-85.7293
808.1	-85.7293
808.2	-85.7294
808.3	-85.7294
808.4	-85.7294
808.5	-85.7295
808.6	-85.7295
808.7	-85.7295
808.8	-85.7296
808.9	-85.7296
809	-85.7296
809.1	-85.7297
809.2	-85.7297
809.3	-85.7297
809.4	-85.7298
809.5	-85.7298
809.6	-85.7299
809.7	-85.7299
809.8	-85.7299
809.9	-85.73
810	-85.73
810.1	-85.73
810.2	-85.7301
810.3	-85.7301
810.4	-85.7301
810.5	-85.7302
810.6	-85.7302
810.7	-85.7302
810.8	-85.7303
810.9	-85.7303
811	-85.7303
811.1	-85.7304
811.2	-85.7304
811.3	-85.7304
811.4	-85.7305
811.5	-85.7305
811.6	-85.7305
811.7	-85.7306
811.8	-85.7306
811.9	-85.7306
812	-85.7307
812.1	-85.7307
812.2	-85.7307
812.3	-85.7308
812.4	-85.7308
812.5	-85.7308
812.6	-85.7309
812.7	-85.7309
812.8	-85.7309
812.9	-85.731
813	-85.731
813.1	-85.731
813.2	-85.7311
813.3	-85.7311
813.4	-85.7311
813.5	-85.7312
813.6	-85.7312
813.7	-85.7312
813.8	-85.7313
813.9	-85.7313
814	-85.7314
814.1	-85.7314
814.2	-85.7314
814.3	-85.7315
814.4	-85.7315
814.5	-85.7315
814.6	-85.7316
814.7	-85.7316
814.8	-85.7316
814.9	-85.7317
815	-85.7317
815.1	-85.7317
815.2	-85.7318
815.3	-85.7318
815.4	-85.7318
815.5	-85.7319
815.6	-85.7319
815.7	-85.7319
815.8	-85.732
815.9	-85.732
816	-85.732
816.1	-85.7321
816.2	-85.7321
816.3	-85.7321
816.4	-85.7322
816.5	-85.7322
816.6	-85.7322
816.7	-85.7323
816.8	-85.7323
816.9	-85.7323
817	-85.7324
817.1	-85.7324
817.2	-85.7324
817.3	-85.7325
817.4	-85.7325
817.5	-85.7325
817.6	-85.7326
817.7	-85.7326
817.8	-85.7326
817.9	-85.7327
818	-85.7327
818.1	-85.7327
818.2	-85.7328
818.3	-85.7328
818.4	-85.7328
818.5	-85.7329
818.6	-85.7329
818.7	-85.7329
818.8	-85.733
818.9	-85.733
819	-85.733
819.1	-85.7331
819.2	-85.7331
819.3	-85.7331
819.4	-85.7332
819.5	-85.7332
819.6	-85.7332
819.7	-85.7333
819.8	-85.7333
819.9	-85.7333
820	-85.7333
820.1	-85.7334
820.2	-85.7334
820.3	-85.7334
820.4	-85.7335
820.5	-85.7335
820.6	-85.7335
820.7	-85.7336
820.8	-85.7336
820.9	-85.7336
821	-85.7337
821.1	-85.7337
821.2	-85.7337
821.3	-85.7338
821.4	-85.7338
821.5	-85.7338
821.6	-85.7339
821.7	-85.7339
821.8	-85.7339
821.9	-85.734
822	-85.734
822.1	-85.734
822.2	-85.7341
822.3	-85.7341
822.4	-85.7341
822.5	-85.7342
822.6	-85.7342
822.7	-85.7342
822.8	-85.7343
822.9	-85.7343
823	-85.7343
823.1	-85.7344
823.2	-85.7344
823.3	-85.7344
823.4	-85.7345
823.5	-85.7345
823.6	-85.7345
823.7	-85.7346
823.8	-85.7346
823.9	-85.7346
824	-85.7347
824.1	-85.7347
824.2	-85.7347
824.3	-85.7348
824.4	-85.7348
824.5	-85.7348
824.6	-85.7348
824.7	-85.7349
824.8	-85.7349
824.9	-85.7349
825	-85.735
825.1	-85.735
825.2	-85.735
825.3	-85.7351
825.4	-85.7351
825.5	-85.7351
825.6	-85.7352
825.7	-85.7352
825.8	-85.7352
825.9	-85.7353
826	-85.7353
826.1	-85.7353
826.2	-85.7354
826.3	-85.7354
826.4	-85.7354
826.5	-85.7355
826.6	-85.7355
826.7	-85.7355
826.8	-85.7356
826.9	-85.7356
827	-85.7356
827.1	-85.7356
827.2	-85.7357
827.3	-85.7357
827.4	-85.7357
827.5	-85.7358
827.6	-85.7358
827.7	-85.7358
827.8	-85.7359
827.9	-85.7359
828	-85.7359
828.1	-85.736
828.2	-85.736
828.3	-85.736
828.4	-85.7361
828.5	-85.7361
828.6	-85.7361
828.7	-85.7362
828.8	-85.7362
828.9	-85.7362
829	-85.7363
829.1	-85.7363
829.2	-85.7363
829.3	-85.7363
829.4	-85.7364
829.5	-85.7364
829.6	-85.7364
829.7	-85.7365
829.8	-85.7365
829.9	-85.7365
830	-85.7366
830.1	-85.7366
830.2	-85.7366
830.3	-85.7367
830.4	-85.7367
830.5	-85.7367
830.6	-85.7368
830.7	-85.7368
830.8	-85.7368
830.9	-85.7369
831	-85.7369
831.1	-85.7369
831.2	-85.7369
831.3	-85.737
831.4	-85.737
831.5	-85.737
831.6	-85.7371
831.7	-85.7371
831.8	-85.7371
831.9	-85.7372
832	-85.7372
832.1	-85.7372
832.2	-85.7373
832.3	-85.7373
832.4	-85.7373
832.5	-85.7374
832.6	-85.7374
832.7	-85.7374
832.8	-85.7374
832.9	-85.7375
833	-85.7375
833.1	-85.7375
833.2	-85.7376
833.3	-85.7376
833.4	-85.7376
833.5	-85.7377
833.6	-85.7377
833.7	-85.7377
833.8	-85.7378
833.9	-85.7378
834	-85.7378
834.1	-85.7379
834.2	-85.7379
834.3	-85.7379
834.4	-85.7379
834.5	-85.738
834.6	-85.738
834.7	-85.738
834.8	-85.7381
834.9	-85.7381
835	-85.7381
835.1	-85.7382
835.2	-85.7382
835.3	-85.7382
835.4	-85.7383
835.5	-85.7383
835.6	-85.7383
835.7	-85.7383
835.8	-85.7384
835.9	-85.7384
836	-85.7384
836.1	-85.7385
836.2	-85.7385
836.3	-85.7385
836.4	-85.7386
836.5	-85.7386
836.6	-85.7386
836.7	-85.7387
836.8	-85.7387
836.9	-85.7387
837	-85.7387
837.1	-85.7388
837.2	-85.7388
837.3	-85.7388
837.4	-85.7389
837.5	-85.7389
837.6	-85.7389
837.7	-85.739
837.8	-85.739
837.9	-85.739
838	-85.739
838.1	-85.7391
838.2	-85.7391
838.3	-85.7391
838.4	-85.7392
838.5	-85.7392
838.6	-85.7392
838.7	-85.7393
838.8	-85.7393
838.9	-85.7393
839	-85.7394
839.1	-85.7394
839.2	-85.7394
839.3	-85.7394
839.4	-85.7395
839.5	-85.7395
839.6	-85.7395
839.7	-85.7396
839.8	-85.7396
839.9	-85.7396
840	-85.7397
840.1	-85.7397
840.2	-85.7397
840.3	-85.7397
840.4	-85.7398
840.5	-85.7398
840.6	-85.7398
840.7	-85.7399
840.8	-85.7399
840.9	-85.7399
841	-85.74
841.1	-85.74
841.2	-85.74
841.3	-85.74
841.4	-85.7401
841.5	-85.7401
841.6	-85.7401
841.7	-85.7402
841.8	-85.7402
841.9	-85.7402
842	-85.7403
842.1	-85.7403
842.2	-85.7403
842.3	-85.7403
842.4	-85.7404
842.5	-85.7404
842.6	-85.7404
842.7	-85.7405
842.8	-85.7405
842.9	-85.7405
843	-85.7406
843.1	-85.7406
843.2	-85.7406
843.3	-85.7406
843.4	-85.7407
843.5	-85.7407
843.6	-85.7407
843.7	-85.7408
843.8	-85.7408
843.9	-85.7408
844	-85.7409
844.1	-85.7409
844.2	-85.7409
844.3	-85.7409
844.4	-85.741
844.5	-85.741
844.6	-85.741
844.7	-85.7411
844.8	-85.7411
844.9	-85.7411
845	-85.7412
845.1	-85.7412
845.2	-85.7412
845.3	-85.7412
845.4	-85.7413
845.5	-85.7413
845.6	-85.7413
845.7	-85.7414
845.8	-85.7414
845.9	-85.7414
846	-85.7414
846.1	-85.7415
846.2	-85.7415
846.3	-85.7415
846.4	-85.7416
846.5	-85.7416
846.6	-85.7416
846.7	-85.7417
846.8	-85.7417
846.9	-85.7417
847	-85.7417
847.1	-85.7418
847.2	-85.7418
847.3	-85.7418
847.4	-85.7419
847.5	-85.7419
847.6	-85.7419
847.7	-85.7419
847.8	-85.742
847.9	-85.742
848	-85.742
848.1	-85.7421
848.2	-85.7421
848.3	-85.7421
848.4	-85.7421
848.5	-85.7422
848.6	-85.7422
848.7	-85.7422
848.8	-85.7423
848.9	-85.7423
849	-85.7423
849.1	-85.7424
849.2	-85.7424
849.3	-85.7424
849.4	-85.7424
849.5	-85.7425
849.6	-85.7425
849.7	-85.7425
849.8	-85.7426
849.9	-85.7426
850	-85.7426
850.1	-85.7426
850.2	-85.7427
850.3	-85.7427
850.4	-85.7427
850.5	-85.7428
850.6	-85.7428
850.7	-85.7428
850.8	-85.7428
850.9	-85.7429
851	-85.7429
851.1	-85.7429
851.2	-85.743
851.3	-85.743
851.4	-85.743
851.5	-85.743
851.6	-85.7431
851.7	-85.7431
851.8	-85.7431
851.9	-85.7432
852	-85.7432
852.1	-85.7432
852.2	-85.7432
852.3	-85.7433
852.4	-85.7433
852.5	-85.7433
852.6	-85.7434
852.7	-85.7434
852.8	-85.7434
852.9	-85.7434
853	-85.7435
853.1	-85.7435
853.2	-85.7435
853.3	-85.7436
853.4	-85.7436
853.5	-85.7436
853.6	-85.7436
853.7	-85.7437
853.8	-85.7437
853.9	-85.7437
854	-85.7438
854.1	-85.7438
854.2	-85.7438
854.3	-85.7438
854.4	-85.7439
854.5	-85.7439
854.6	-85.7439
854.7	-85.744
854.8	-85.744
854.9	-85.744
855	-85.744
855.1	-85.7441
855.2	-85.7441
855.3	-85.7441
855.4	-85.7442
855.5	-85.7442
855.6	-85.7442
855.7	-85.7442
855.8	-85.7443
855.9	-85.7443
856	-85.7443
856.1	-85.7444
856.2	-85.7444
856.3	-85.7444
856.4	-85.7444
856.5	-85.7445
856.6	-85.7445
856.7	-85.7445
856.8	-85.7446
856.9	-85.7446
857	-85.7446
857.1	-85.7446
857.2	-85.7447
857.3	-85.7447
857.4	-85.7447
857.5	-85.7448
857.6	-85.7448
857.7	-85.7448
857.8	-85.7448
857.9	-85.7449
858	-85.7449
858.1	-85.7449
858.2	-85.7449
858.3	-85.745
858.4	-85.745
858.5	-85.745
858.6	-85.7451
858.7	-85.7451
858.8	-85.7451
858.9	-85.7451
859	-85.7452
859.1	-85.7452
859.2	-85.7452
859.3	-85.7453
859.4	-85.7453
859.5	-85.7453
859.6	-85.7453
859.7	-85.7454
859.8	-85.7454
859.9	-85.7454
860	-85.7454
860.1	-85.7455
860.2	-85.7455
860.3	-85.7455
860.4	-85.7456
860.5	-85.7456
860.6	-85.7456
860.7	-85.7456
860.8	-85.7457
860.9	-85.7457
861	-85.7457
861.1	-85.7458
861.2	-85.7458
861.3	-85.7458
861.4	-85.7458
861.5	-85.7459
861.6	-85.7459
861.7	-85.7459
861.8	-85.7459
861.9	-85.746
862	-85.746
862.1	-85.746
862.2	-85.7461
862.3	-85.7461
862.4	-85.7461
862.5	-85.7461
862.6	-85.7462
862.7	-85.7462
862.8	-85.7462
862.9	-85.7462
863	-85.7463
863.1	-85.7463
863.2	-85.7463
863.3	-85.7464
863.4	-85.7464
863.5	-85.7464
863.6	-85.7464
863.7	-85.7465
863.8	-85.7465
863.9	-85.7465
864	-85.7466
864.1	-85.7466
864.2	-85.7466
864.3	-85.7466
864.4	-85.7467
864.5	-85.7467
864.6	-85.7467
864.7	-85.7467
864.8	-85.7468
864.9	-85.7468
865	-85.7468
865.1	-85.7469
865.2	-85.7469
865.3	-85.7469
865.4	-85.7469
865.5	-85.747
865.6	-85.747
865.7	-85.747
865.8	-85.747
865.9	-85.7471
866	-85.7471
866.1	-85.7471
866.2	-85.7471
866.3	-85.7472
866.4	-85.7472
866.5	-85.7472
866.6	-85.7473
866.7	-85.7473
866.8	-85.7473
866.9	-85.7473
867	-85.7474
867.1	-85.7474
867.2	-85.7474
867.3	-85.7474
867.4	-85.7475
867.5	-85.7475
867.6	-85.7475
867.7	-85.7476
867.8	-85.7476
867.9	-85.7476
868	-85.7476
868.1	-85.7477
868.2	-85.7477
868.3	-85.7477
868.4	-85.7477
868.5	-85.7478
868.6	-85.7478
868.7	-85.7478
868.8	-85.7478
868.9	-85.7479
869	-85.7479
869.1	-85.7479
869.2	-85.748
869.3	-85.748
869.4	-85.748
869.5	-85.748
869.6	-85.7481
869.7	-85.7481
869.8	-85.7481
869.9	-85.7481
870	-85.7482
870.1	-85.7482
870.2	-85.7482
870.3	-85.7482
870.4	-85.7483
870.5	-85.7483
870.6	-85.7483
870.7	-85.7484
870.8	-85.7484
870.9	-85.7484
871	-85.7484
871.1	-85.7485
871.2	-85.7485
871.3	-85.7485
871.4	-85.7485
871.5	-85.7486
871.6	-85.7486
871.7	-85.7486
871.8	-85.7486
871.9	-85.7487
872	-85.7487
872.1	-85.7487
872.2	-85.7488
872.3	-85.7488
872.4	-85.7488
872.5	-85.7488
872.6	-85.7489
872.7	-85.7489
872.8	-85.7489
872.9	-85.7489
873	-85.749
873.1	-85.749
873.2	-85.749
873.3	-85.749
873.4	-85.7491
873.5	-85.7491
873.6	-85.7491
873.7	-85.7491
873.8	-85.7492
873.9	-85.7492
874	-85.7492
874.1	-85.7492
874.2	-85.7493
874.3	-85.7493
874.4	-85.7493
874.5	-85.7494
874.6	-85.7494
874.7	-85.7494
874.8	-85.7494
874.9	-85.7495
875	-85.7495
875.1	-85.7495
875.2	-85.7495
875.3	-85.7496
875.4	-85.7496
875.5	-85.7496
875.6	-85.7496
875.7	-85.7497
875.8	-85.7497
875.9	-85.7497
876	-85.7497
876.1	-85.7498
876.2	-85.7498
876.3	-85.7498
876.4	-85.7498
876.5	-85.7499
876.6	-85.7499
876.7	-85.7499
876.8	-85.75
876.9	-85.75
877	-85.75
877.1	-85.75
877.2	-85.7501
877.3	-85.7501
877.4	-85.7501
877.5	-85.7501
877.6	-85.7502
877.7	-85.7502
877.8	-85.7502
877.9	-85.7502
878	-85.7503
878.1	-85.7503
878.2	-85.7503
878.3	-85.7503
878.4	-85.7504
878.5	-85.7504
878.6	-85.7504
878.7	-85.7504
878.8	-85.7505
878.9	-85.7505
879	-85.7505
879.1	-85.7505
879.2	-85.7506
879.3	-85.7506
879.4	-85.7506
879.5	-85.7506
879.6	-85.7507
879.7	-85.7507
879.8	-85.7507
879.9	-85.7507
880	-85.7508
880.1	-85.7508
880.2	-85.7508
880.3	-85.7509
880.4	-85.7509
880.5	-85.7509
880.6	-85.7509
880.7	-85.751
880.8	-85.751
880.9	-85.751
881	-85.751
881.1	-85.7511
881.2	-85.7511
881.3	-85.7511
881.4	-85.7511
881.5	-85.7512
881.6	-85.7512
881.7	-85.7512
881.8	-85.7512
881.9	-85.7513
882	-85.7513
882.1	-85.7513
882.2	-85.7513
882.3	-85.7514
882.4	-85.7514
882.5	-85.7514
882.6	-85.7514
882.7	-85.7515
882.8	-85.7515
882.9	-85.7515
883	-85.7515
883.1	-85.7516
883.2	-85.7516
883.3	-85.7516
883.4	-85.7516
883.5	-85.7517
883.6	-85.7517
883.7	-85.7517
883.8	-85.7517
883.9	-85.7518
884	-85.7518
884.1	-85.7518
884.2	-85.7518
884.3	-85.7519
884.4	-85.7519
884.5	-85.7519
884.6	-85.7519
884.7	-85.752
884.8	-85.752
884.9	-85.752
885	-85.752
885.1	-85.7521
885.2	-85.7521
885.3	-85.7521
885.4	-85.7521
885.5	-85.7522
885.6	-85.7522
885.7	-85.7522
885.8	-85.7522
885.9	-85.7523
886	-85.7523
886.1	-85.7523
886.2	-85.7523
886.3	-85.7524
886.4	-85.7524
886.5	-85.7524
886.6	-85.7524
886.7	-85.7525
886.8	-85.7525
886.9	-85.7525
887	-85.7525
887.1	-85.7526
887.2	-85.7526
887.3	-85.7526
887.4	-85.7526
887.5	-85.7527
887.6	-85.7527
887.7	-85.7527
887.8	-85.7527
887.9	-85.7528
888	-85.7528
888.1	-85.7528
888.2	-85.7528
888.3	-85.7529
888.4	-85.7529
888.5	-85.7529
888.6	-85.7529
888.7	-85.753
888.8	-85.753
888.9	-85.753
889	-85.753
889.1	-85.7531
889.2	-85.7531
889.3	-85.7531
889.4	-85.7531
889.5	-85.7532
889.6	-85.7532
889.7	-85.7532
889.8	-85.7532
889.9	-85.7532
890	-85.7533
890.1	-85.7533
890.2	-85.7533
890.3	-85.7533
890.4	-85.7534
890.5	-85.7534
890.6	-85.7534
890.7	-85.7534
890.8	-85.7535
890.9	-85.7535
891	-85.7535
891.1	-85.7535
891.2	-85.7536
891.3	-85.7536
891.4	-85.7536
891.5	-85.7536
891.6	-85.7537
891.7	-85.7537
891.8	-85.7537
891.9	-85.7537
892	-85.7538
892.1	-85.7538
892.2	-85.7538
892.3	-85.7538
892.4	-85.7539
892.5	-85.7539
892.6	-85.7539
892.7	-85.7539
892.8	-85.754
892.9	-85.754
893	-85.754
893.1	-85.754
893.2	-85.7541
893.3	-85.7541
893.4	-85.7541
893.5	-85.7541
893.6	-85.7541
893.7	-85.7542
893.8	-85.7542
893.9	-85.7542
894	-85.7542
894.1	-85.7543
894.2	-85.7543
894.3	-85.7543
894.4	-85.7543
894.5	-85.7544
894.6	-85.7544
894.7	-85.7544
894.8	-85.7544
894.9	-85.7545
895	-85.7545
895.1	-85.7545
895.2	-85.7545
895.3	-85.7546
895.4	-85.7546
895.5	-85.7546
895.6	-85.7546
895.7	-85.7547
895.8	-85.7547
895.9	-85.7547
896	-85.7547
896.1	-85.7547
896.2	-85.7548
896.3	-85.7548
896.4	-85.7548
896.5	-85.7548
896.6	-85.7549
896.7	-85.7549
896.8	-85.7549
896.9	-85.7549
897	-85.755
897.1	-85.755
897.2	-85.755
897.3	-85.755
897.4	-85.7551
897.5	-85.7551
897.6	-85.7551
897.7	-85.7551
897.8	-85.7551
897.9	-85.7552
898	-85.7552
898.1	-85.7552
898.2	-85.7552
898.3	-85.7553
898.4	-85.7553
898.5	-85.7553
898.6	-85.7553
898.7	-85.7554
898.8	-85.7554
898.9	-85.7554
899	-85.7554
899.1	-85.7555
899.2	-85.7555
899.3	-85.7555
899.4	-85.7555
899.5	-85.7556
899.6	-85.7556
899.7	-85.7556
899.8	-85.7556
899.9	-85.7556
900	-85.7557
900.1	-85.7557
900.2	-85.7557
900.3	-85.7557
900.4	-85.7558
900.5	-85.7558
900.6	-85.7558
900.7	-85.7558
900.8	-85.7559
900.9	-85.7559
901	-85.7559
901.1	-85.7559
901.2	-85.7559
901.3	-85.756
901.4	-85.756
901.5	-85.756
901.6	-85.756
901.7	-85.7561
901.8	-85.7561
901.9	-85.7561
902	-85.7561
902.1	-85.7562
902.2	-85.7562
902.3	-85.7562
902.4	-85.7562
902.5	-85.7563
902.6	-85.7563
902.7	-85.7563
902.8	-85.7563
902.9	-85.7563
903	-85.7564
903.1	-85.7564
903.2	-85.7564
903.3	-85.7564
903.4	-85.7565
903.5	-85.7565
903.6	-85.7565
903.7	-85.7565
903.8	-85.7566
903.9	-85.7566
904	-85.7566
904.1	-85.7566
904.2	-85.7566
904.3	-85.7567
904.4	-85.7567
904.5	-85.7567
904.6	-85.7567
904.7	-85.7568
904.8	-85.7568
904.9	-85.7568
905	-85.7568
905.1	-85.7569
905.2	-85.7569
905.3	-85.7569
905.4	-85.7569
905.5	-85.7569
905.6	-85.757
905.7	-85.757
905.8	-85.757
905.9	-85.757
906	-85.7571
906.1	-85.7571
906.2	-85.7571
906.3	-85.7571
906.4	-85.7571
906.5	-85.7572
906.6	-85.7572
906.7	-85.7572
906.8	-85.7572
906.9	-85.7573
907	-85.7573
907.1	-85.7573
907.2	-85.7573
907.3	-85.7574
907.4	-85.7574
907.5	-85.7574
907.6	-85.7574
907.7	-85.7574
907.8	-85.7575
907.9	-85.7575
908	-85.7575
908.1	-85.7575
908.2	-85.7576
908.3	-85.7576
908.4	-85.7576
908.5	-85.7576
908.6	-85.7576
908.7	-85.7577
908.8	-85.7577
908.9	-85.7577
909	-85.7577
909.1	-85.7578
909.2	-85.7578
909.3	-85.7578
909.4	-85.7578
909.5	-85.7579
909.6	-85.7579
909.7	-85.7579
909.8	-85.7579
909.9	-85.7579
910	-85.758
910.1	-85.758
910.2	-85.758
910.3	-85.758
910.4	-85.7581
910.5	-85.7581
910.6	-85.7581
910.7	-85.7581
910.8	-85.7581
910.9	-85.7582
911	-85.7582
911.1	-85.7582
911.2	-85.7582
911.3	-85.7583
911.4	-85.7583
911.5	-85.7583
911.6	-85.7583
911.7	-85.7583
911.8	-85.7584
911.9	-85.7584
912	-85.7584
912.1	-85.7584
912.2	-85.7585
912.3	-85.7585
912.4	-85.7585
912.5	-85.7585
912.6	-85.7585
912.7	-85.7586
912.8	-85.7586
912.9	-85.7586
913	-85.7586
913.1	-85.7587
913.2	-85.7587
913.3	-85.7587
913.4	-85.7587
913.5	-85.7587
913.6	-85.7588
913.7	-85.7588
913.8	-85.7588
913.9	-85.7588
914	-85.7589
914.1	-85.7589
914.2	-85.7589
914.3	-85.7589
914.4	-85.7589
914.5	-85.759
914.6	-85.759
914.7	-85.759
914.8	-85.759
914.9	-85.7591
915	-85.7591
915.1	-85.7591
915.2	-85.7591
915.3	-85.7591
915.4	-85.7592
915.5	-85.7592
915.6	-85.7592
915.7	-85.7592
915.8	-85.7593
915.9	-85.7593
916	-85.7593
916.1	-85.7593
916.2	-85.7593
916.3	-85.7594
916.4	-85.7594
916.5	-85.7594
916.6	-85.7594
916.7	-85.7595
916.8	-85.7595
916.9	-85.7595
917	-85.7595
917.1	-85.7595
917.2	-85.7596
917.3	-85.7596
917.4	-85.7596
917.5	-85.7596
917.6	-85.7596
917.7	-85.7597
917.8	-85.7597
917.9	-85.7597
918	-85.7597
918.1	-85.7598
918.2	-85.7598
918.3	-85.7598
918.4	-85.7598
918.5	-85.7598
918.6	-85.7599
918.7	-85.7599
918.8	-85.7599
918.9	-85.7599
919	-85.76
919.1	-85.76
919.2	-85.76
919.3	-85.76
919.4	-85.76
919.5	-85.7601
919.6	-85.7601
919.7	-85.7601
919.8	-85.7601
919.9	-85.7601
920	-85.7602
920.1	-85.7602
920.2	-85.7602
920.3	-85.7602
920.4	-85.7603
920.5	-85.7603
920.6	-85.7603
920.7	-85.7603
920.8	-85.7603
920.9	-85.7604
921	-85.7604
921.1	-85.7604
921.2	-85.7604
921.3	-85.7604
921.4	-85.7605
921.5	-85.7605
921.6	-85.7605
921.7	-85.7605
921.8	-85.7606
921.9	-85.7606
922	-85.7606
922.1	-85.7606
922.2	-85.7606
922.3	-85.7607
922.4	-85.7607
922.5	-85.7607
922.6	-85.7607
922.7	-85.7607
922.8	-85.7608
922.9	-85.7608
923	-85.7608
923.1	-85.7608
923.2	-85.7609
923.3	-85.7609
923.4	-85.7609
923.5	-85.7609
923.6	-85.7609
923.7	-85.761
923.8	-85.761
923.9	-85.761
924	-85.761
924.1	-85.761
924.2	-85.7611
924.3	-85.7611
924.4	-85.7611
924.5	-85.7611
924.6	-85.7611
924.7	-85.7612
924.8	-85.7612
924.9	-85.7612
925	-85.7612
925.1	-85.7613
925.2	-85.7613
925.3	-85.7613
925.4	-85.7613
925.5	-85.7613
925.6	-85.7614
925.7	-85.7614
925.8	-85.7614
925.9	-85.7614
926	-85.7614
926.1	-85.7615
926.2	-85.7615
926.3	-85.7615
926.4	-85.7615
926.5	-85.7615
926.6	-85.7616
926.7	-85.7616
926.8	-85.7616
926.9	-85.7616
927	-85.7617
927.1	-85.7617
927.2	-85.7617
927.3	-85.7617
927.4	-85.7617
927.5	-85.7618
927.6	-85.7618
927.7	-85.7618
927.8	-85.7618
927.9	-85.7618
928	-85.7619
928.1	-85.7619
928.2	-85.7619
928.3	-85.7619
928.4	-85.7619
928.5	-85.762
928.6	-85.762
928.7	-85.762
928.8	-85.762
928.9	-85.7621
929	-85.7621
929.1	-85.7621
929.2	-85.7621
929.3	-85.7621
929.4	-85.7622
929.5	-85.7622
929.6	-85.7622
929.7	-85.7622
929.8	-85.7622
929.9	-85.7623
930	-85.7623
930.1	-85.7623
930.2	-85.7623
930.3	-85.7623
930.4	-85.7624
930.5	-85.7624
930.6	-85.7624
930.7	-85.7624
930.8	-85.7624
930.9	-85.7625
931	-85.7625
931.1	-85.7625
931.2	-85.7625
931.3	-85.7625
931.4	-85.7626
931.5	-85.7626
931.6	-85.7626
931.7	-85.7626
931.8	-85.7626
931.9	-85.7627
932	-85.7627
932.1	-85.7627
932.2	-85.7627
932.3	-85.7628
932.4	-85.7628
932.5	-85.7628
932.6	-85.7628
932.7	-85.7628
932.8	-85.7629
932.9	-85.7629
933	-85.7629
933.1	-85.7629
933.2	-85.7629
933.3	-85.763
933.4	-85.763
933.5	-85.763
933.6	-85.763
933.7	-85.763
933.8	-85.7631
933.9	-85.7631
934	-85.7631
934.1	-85.7631
934.2	-85.7631
934.3	-85.7632
934.4	-85.7632
934.5	-85.7632
934.6	-85.7632
934.7	-85.7632
934.8	-85.7633
934.9	-85.7633
935	-85.7633
935.1	-85.7633
935.2	-85.7633
935.3	-85.7634
935.4	-85.7634
935.5	-85.7634
935.6	-85.7634
935.7	-85.7634
935.8	-85.7635
935.9	-85.7635
936	-85.7635
936.1	-85.7635
936.2	-85.7635
936.3	-85.7636
936.4	-85.7636
936.5	-85.7636
936.6	-85.7636
936.7	-85.7636
936.8	-85.7637
936.9	-85.7637
937	-85.7637
937.1	-85.7637
937.2	-85.7637
937.3	-85.7638
937.4	-85.7638
937.5	-85.7638
937.6	-85.7638
937.7	-85.7638
937.8	-85.7639
937.9	-85.7639
938	-85.7639
938.1	-85.7639
938.2	-85.7639
938.3	-85.764
938.4	-85.764
938.5	-85.764
938.6	-85.764
938.7	-85.764
938.8	-85.7641
938.9	-85.7641
939	-85.7641
939.1	-85.7641
939.2	-85.7641
939.3	-85.7642
939.4	-85.7642
939.5	-85.7642
939.6	-85.7642
939.7	-85.7642
939.8	-85.7643
939.9	-85.7643
940	-85.7643
940.1	-85.7643
940.2	-85.7643
940.3	-85.7644
940.4	-85.7644
940.5	-85.7644
940.6	-85.7644
940.7	-85.7644
940.8	-85.7645
940.9	-85.7645
941	-85.7645
941.1	-85.7645
941.2	-85.7645
941.3	-85.7646
941.4	-85.7646
941.5	-85.7646
941.6	-85.7646
941.7	-85.7646
941.8	-85.7647
941.9	-85.7647
942	-85.7647
942.1	-85.7647
942.2	-85.7647
942.3	-85.7648
942.4	-85.7648
942.5	-85.7648
942.6	-85.7648
942.7	-85.7648
942.8	-85.7649
942.9	-85.7649
943	-85.7649
943.1	-85.7649
943.2	-85.7649
943.3	-85.765
943.4	-85.765
943.5	-85.765
943.6	-85.765
943.7	-85.765
943.8	-85.7651
943.9	-85.7651
944	-85.7651
944.1	-85.7651
944.2	-85.7651
944.3	-85.7651
944.4	-85.7652
944.5	-85.7652
944.6	-85.7652
944.7	-85.7652
944.8	-85.7652
944.9	-85.7653
945	-85.7653
945.1	-85.7653
945.2	-85.7653
945.3	-85.7653
945.4	-85.7654
945.5	-85.7654
945.6	-85.7654
945.7	-85.7654
945.8	-85.7654
945.9	-85.7655
946	-85.7655
946.1	-85.7655
946.2	-85.7655
946.3	-85.7655
946.4	-85.7656
946.5	-85.7656
946.6	-85.7656
946.7	-85.7656
946.8	-85.7656
946.9	-85.7657
947	-85.7657
947.1	-85.7657
947.2	-85.7657
947.3	-85.7657
947.4	-85.7657
947.5	-85.7658
947.6	-85.7658
947.7	-85.7658
947.8	-85.7658
947.9	-85.7658
948	-85.7659
948.1	-85.7659
948.2	-85.7659
948.3	-85.7659
948.4	-85.7659
948.5	-85.766
948.6	-85.766
948.7	-85.766
948.8	-85.766
948.9	-85.766
949	-85.7661
949.1	-85.7661
949.2	-85.7661
949.3	-85.7661
949.4	-85.7661
949.5	-85.7661
949.6	-85.7662
949.7	-85.7662
949.8	-85.7662
949.9	-85.7662
950	-85.7662
950.1	-85.7663
950.2	-85.7663
950.3	-85.7663
950.4	-85.7663
950.5	-85.7663
950.6	-85.7664
950.7	-85.7664
950.8	-85.7664
950.9	-85.7664
951	-85.7664
951.1	-85.7665
951.2	-85.7665
951.3	-85.7665
951.4	-85.7665
951.5	-85.7665
951.6	-85.7665
951.7	-85.7666
951.8	-85.7666
951.9	-85.7666
952	-85.7666
952.1	-85.7666
952.2	-85.7667
952.3	-85.7667
952.4	-85.7667
952.5	-85.7667
952.6	-85.7667
952.7	-85.7668
952.8	-85.7668
952.9	-85.7668
953	-85.7668
953.1	-85.7668
953.2	-85.7668
953.3	-85.7669
953.4	-85.7669
953.5	-85.7669
953.6	-85.7669
953.7	-85.7669
953.8	-85.767
953.9	-85.767
954	-85.767
954.1	-85.767
954.2	-85.767
954.3	-85.7671
954.4	-85.7671
954.5	-85.7671
954.6	-85.7671
954.7	-85.7671
954.8	-85.7671
954.9	-85.7672
955	-85.7672
955.1	-85.7672
955.2	-85.7672
955.3	-85.7672
955.4	-85.7673
955.5	-85.7673
955.6	-85.7673
955.7	-85.7673
955.8	-85.7673
955.9	-85.7674
956	-85.7674
956.1	-85.7674
956.2	-85.7674
956.3	-85.7674
956.4	-85.7674
956.5	-85.7675
956.6	-85.7675
956.7	-85.7675
956.8	-85.7675
956.9	-85.7675
957	-85.7676
957.1	-85.7676
957.2	-85.7676
957.3	-85.7676
957.4	-85.7676
957.5	-85.7676
957.6	-85.7677
957.7	-85.7677
957.8	-85.7677
957.9	-85.7677
958	-85.7677
958.1	-85.7678
958.2	-85.7678
958.3	-85.7678
958.4	-85.7678
958.5	-85.7678
958.6	-85.7678
958.7	-85.7679
958.8	-85.7679
958.9	-85.7679
959	-85.7679
959.1	-85.7679
959.2	-85.768
959.3	-85.768
959.4	-85.768
959.5	-85.768
959.6	-85.768
959.7	-85.7681
959.8	-85.7681
959.9	-85.7681
960	-85.7681
960.1	-85.7681
960.2	-85.7681
960.3	-85.7682
960.4	-85.7682
960.5	-85.7682
960.6	-85.7682
960.7	-85.7682
960.8	-85.7683
960.9	-85.7683
961	-85.7683
961.1	-85.7683
961.2	-85.7683
961.3	-85.7683
961.4	-85.7684
961.5	-85.7684
961.6	-85.7684
961.7	-85.7684
961.8	-85.7684
961.9	-85.7684
962	-85.7685
962.1	-85.7685
962.2	-85.7685
962.3	-85.7685
962.4	-85.7685
962.5	-85.7686
962.6	-85.7686
962.7	-85.7686
962.8	-85.7686
962.9	-85.7686
963	-85.7686
963.1	-85.7687
963.2	-85.7687
963.3	-85.7687
963.4	-85.7687
963.5	-85.7687
963.6	-85.7688
963.7	-85.7688
963.8	-85.7688
963.9	-85.7688
964	-85.7688
964.1	-85.7688
964.2	-85.7689
964.3	-85.7689
964.4	-85.7689
964.5	-85.7689
964.6	-85.7689
964.7	-85.769
964.8	-85.769
964.9	-85.769
965	-85.769
965.1	-85.769
965.2	-85.769
965.3	-85.7691
965.4	-85.7691
965.5	-85.7691
965.6	-85.7691
965.7	-85.7691
965.8	-85.7691
965.9	-85.7692
966	-85.7692
966.1	-85.7692
966.2	-85.7692
966.3	-85.7692
966.4	-85.7693
966.5	-85.7693
966.6	-85.7693
966.7	-85.7693
966.8	-85.7693
966.9	-85.7693
967	-85.7694
967.1	-85.7694
967.2	-85.7694
967.3	-85.7694
967.4	-85.7694
967.5	-85.7695
967.6	-85.7695
967.7	-85.7695
967.8	-85.7695
967.9	-85.7695
968	-85.7695
968.1	-85.7696
968.2	-85.7696
968.3	-85.7696
968.4	-85.7696
968.5	-85.7696
968.6	-85.7696
968.7	-85.7697
968.8	-85.7697
968.9	-85.7697
969	-85.7697
969.1	-85.7697
969.2	-85.7697
969.3	-85.7698
969.4	-85.7698
969.5	-85.7698
969.6	-85.7698
969.7	-85.7698
969.8	-85.7699
969.9	-85.7699
970	-85.7699
970.1	-85.7699
970.2	-85.7699
970.3	-85.7699
970.4	-85.77
970.5	-85.77
970.6	-85.77
970.7	-85.77
970.8	-85.77
970.9	-85.77
971	-85.7701
971.1	-85.7701
971.2	-85.7701
971.3	-85.7701
971.4	-85.7701
971.5	-85.7702
971.6	-85.7702
971.7	-85.7702
971.8	-85.7702
971.9	-85.7702
972	-85.7702
972.1	-85.7703
972.2	-85.7703
972.3	-85.7703
972.4	-85.7703
972.5	-85.7703
972.6	-85.7703
972.7	-85.7704
972.8	-85.7704
972.9	-85.7704
973	-85.7704
973.1	-85.7704
973.2	-85.7704
973.3	-85.7705
973.4	-85.7705
973.5	-85.7705
973.6	-85.7705
973.7	-85.7705
973.8	-85.7705
973.9	-85.7706
974	-85.7706
974.1	-85.7706
974.2	-85.7706
974.3	-85.7706
974.4	-85.7707
974.5	-85.7707
974.6	-85.7707
974.7	-85.7707
974.8	-85.7707
974.9	-85.7707
975	-85.7708
975.1	-85.7708
975.2	-85.7708
975.3	-85.7708
975.4	-85.7708
975.5	-85.7708
975.6	-85.7709
975.7	-85.7709
975.8	-85.7709
975.9	-85.7709
976	-85.7709
976.1	-85.7709
976.2	-85.771
976.3	-85.771
976.4	-85.771
976.5	-85.771
976.6	-85.771
976.7	-85.771
976.8	-85.7711
976.9	-85.7711
977	-85.7711
977.1	-85.7711
977.2	-85.7711
977.3	-85.7711
977.4	-85.7712
977.5	-85.7712
977.6	-85.7712
977.7	-85.7712
977.8	-85.7712
977.9	-85.7712
978	-85.7713
978.1	-85.7713
978.2	-85.7713
978.3	-85.7713
978.4	-85.7713
978.5	-85.7713
978.6	-85.7714
978.7	-85.7714
978.8	-85.7714
978.9	-85.7714
979	-85.7714
979.1	-85.7714
979.2	-85.7715
979.3	-85.7715
979.4	-85.7715
979.5	-85.7715
979.6	-85.7715
979.7	-85.7716
979.8	-85.7716
979.9	-85.7716
980	-85.7716
980.1	-85.7716
980.2	-85.7716
980.3	-85.7717
980.4	-85.7717
980.5	-85.7717
980.6	-85.7717
980.7	-85.7717
980.8	-85.7717
980.9	-85.7718
981	-85.7718
981.1	-85.7718
981.2	-85.7718
981.3	-85.7718
981.4	-85.7718
981.5	-85.7719
981.6	-85.7719
981.7	-85.7719
981.8	-85.7719
981.9	-85.7719
982	-85.7719
982.1	-85.772
982.2	-85.772
982.3	-85.772
982.4	-85.772
982.5	-85.772
982.6	-85.772
982.7	-85.7721
982.8	-85.7721
982.9	-85.7721
983	-85.7721
983.1	-85.7721
983.2	-85.7721
983.3	-85.7721
983.4	-85.7722
983.5	-85.7722
983.6	-85.7722
983.7	-85.7722
983.8	-85.7722
983.9	-85.7722
984	-85.7723
984.1	-85.7723
984.2	-85.7723
984.3	-85.7723
984.4	-85.7723
984.5	-85.7723
984.6	-85.7724
984.7	-85.7724
984.8	-85.7724
984.9	-85.7724
985	-85.7724
985.1	-85.7724
985.2	-85.7725
985.3	-85.7725
985.4	-85.7725
985.5	-85.7725
985.6	-85.7725
985.7	-85.7725
985.8	-85.7726
985.9	-85.7726
986	-85.7726
986.1	-85.7726
986.2	-85.7726
986.3	-85.7726
986.4	-85.7727
986.5	-85.7727
986.6	-85.7727
986.7	-85.7727
986.8	-85.7727
986.9	-85.7727
987	-85.7728
987.1	-85.7728
987.2	-85.7728
987.3	-85.7728
987.4	-85.7728
987.5	-85.7728
987.6	-85.7729
987.7	-85.7729
987.8	-85.7729
987.9	-85.7729
988	-85.7729
988.1	-85.7729
988.2	-85.773
988.3	-85.773
988.4	-85.773
988.5	-85.773
988.6	-85.773
988.7	-85.773
988.8	-85.773
988.9	-85.7731
989	-85.7731
989.1	-85.7731
989.2	-85.7731
989.3	-85.7731
989.4	-85.7731
989.5	-85.7732
989.6	-85.7732
989.7	-85.7732
989.8	-85.7732
989.9	-85.7732
990	-85.7732
990.1	-85.7733
990.2	-85.7733
990.3	-85.7733
990.4	-85.7733
990.5	-85.7733
990.6	-85.7733
990.7	-85.7734
990.8	-85.7734
990.9	-85.7734
991	-85.7734
991.1	-85.7734
991.2	-85.7734
991.3	-85.7734
991.4	-85.7735
991.5	-85.7735
991.6	-85.7735
991.7	-85.7735
991.8	-85.7735
991.9	-85.7735
992	-85.7736
992.1	-85.7736
992.2	-85.7736
992.3	-85.7736
992.4	-85.7736
992.5	-85.7736
992.6	-85.7737
992.7	-85.7737
992.8	-85.7737
992.9	-85.7737
993	-85.7737
993.1	-85.7737
993.2	-85.7738
993.3	-85.7738
993.4	-85.7738
993.5	-85.7738
993.6	-85.7738
993.7	-85.7738
993.8	-85.7738
993.9	-85.7739
994	-85.7739
994.1	-85.7739
994.2	-85.7739
994.3	-85.7739
994.4	-85.7739
994.5	-85.774
994.6	-85.774
994.7	-85.774
994.8	-85.774
994.9	-85.774
995	-85.774
995.1	-85.7741
995.2	-85.7741
995.3	-85.7741
995.4	-85.7741
995.5	-85.7741
995.6	-85.7741
995.7	-85.7741
995.8	-85.7742
995.9	-85.7742
996	-85.7742
996.1	-85.7742
996.2	-85.7742
996.3	-85.7742
996.4	-85.7743
996.5	-85.7743
996.6	-85.7743
996.7	-85.7743
996.8	-85.7743
996.9	-85.7743
997	-85.7743
997.1	-85.7744
997.2	-85.7744
997.3	-85.7744
997.4	-85.7744
997.5	-85.7744
997.6	-85.7744
997.7	-85.7745
997.8	-85.7745
997.9	-85.7745
998	-85.7745
998.1	-85.7745
998.2	-85.7745
998.3	-85.7746
998.4	-85.7746
998.5	-85.7746
998.6	-85.7746
998.7	-85.7746
998.8	-85.7746
998.9	-85.7746
999	-85.7747
999.1	-85.7747
999.2	-85.7747
999.3	-85.7747
999.4	-85.7747
999.5	-85.7747
999.6	-85.7748
999.7	-85.7748
999.8	-85.7748
999.9	-85.7748
1000	-85.774
