Time(ms)	Membrane_Voltage(mV)
-5	-85.75
-4.9	-85.75
-4.8	-85.7501
-4.7	-85.7501
-4.6	-85.7501
-4.5	-85.7501
-4.4	-85.7501
-4.3	-85.7501
-4.2	-85.7502
-4.1	-85.7502
-4	-85.7502
-3.9	-85.7502
-3.8	-85.7502
-3.7	-85.7502
-3.6	-85.7503
-3.5	-85.7503
-3.4	-85.7503
-3.3	-85.7503
-3.2	-85.7503
-3.1	-85.7503
-3	-85.7504
-2.9	-85.7504
-2.8	-85.7504
-2.7	-85.7504
-2.6	-85.7504
-2.5	-85.7504
-2.4	-85.7505
-2.3	-85.7505
-2.2	-85.7505
-2.1	-85.7505
-2	-85.7505
-1.9	-85.7505
-1.8	-85.7505
-1.7	-85.7506
-1.6	-85.7506
-1.5	-85.7506
-1.4	-85.7506
-1.3	-85.7506
-1.2	-85.7506
-1.1	-85.7507
-1	-85.7507
-0.9	-85.7507
-0.8	-85.7507
-0.7	-85.7507
-0.6	-85.7507
-0.5	-85.7508
-0.4	-85.7508
-0.3	-85.7508
-0.2	-85.7508
-0.1	-85.7508
0	-85.7508
0.1	-84.2727
0.2	-82.8313
0.3	-81.4221
0.4	-80.0406
0.5	-78.6827
0.6	-77.3444
0.7	-76.0224
0.8	-74.7134
0.9	-73.4145
1	-72.123
1.1	-70.8367
1.2	-69.5533
1.3	-68.2708
1.4	-66.9872
1.5	-65.7007
1.6	-64.4093
1.7	-63.1106
1.8	-61.8013
1.9	-60.4771
2	-59.1309
2.1	-57.7519
2.2	-56.3223
2.3	-54.8126
2.4	-53.1717
2.5	-51.3079
2.6	-49.0433
2.7	-45.9984
2.8	-41.2602
2.9	-32.5286
3	-15.825
3.1	3.31857
3.2	14.8105
3.3	19.4155
3.4	20.7099
3.5	20.5404
3.6	19.7397
3.7	18.6889
3.8	17.5668
3.9	16.4594
4	15.4068
4.1	14.4259
4.2	13.52
4.3	12.6854
4.4	11.9143
4.5	11.1975
4.6	10.5258
4.7	9.89073
4.8	9.28524
4.9	8.70353
5	8.14115
5.1	7.59471
5.2	7.06185
5.3	6.54095
5.4	6.03095
5.5	5.53126
5.6	5.0416
5.7	4.5619
5.8	4.09225
5.9	3.6328
6	3.18373
6.1	2.74525
6.2	2.3175
6.3	1.90064
6.4	1.49474
6.5	1.09986
6.6	0.715975
6.7	0.343039
6.8	-0.019046
6.9	-0.370422
7	-0.711261
7.1	-1.04176
7.2	-1.36216
7.3	-1.67268
7.4	-1.9736
7.5	-2.26517
7.6	-2.54769
7.7	-2.82141
7.8	-3.08664
7.9	-3.34364
8	-3.59271
8.1	-3.8341
8.2	-4.0681
8.3	-4.29497
8.4	-4.51497
8.5	-4.72834
8.6	-4.93534
8.7	-5.13621
8.8	-5.33116
8.9	-5.52042
9	-5.70421
9.1	-5.88273
9.2	-6.05618
9.3	-6.22476
9.4	-6.38863
9.5	-6.54799
9.6	-6.703
9.7	-6.85382
9.8	-7.00061
9.9	-7.14352
10	-7.28269
10.1	-7.41826
10.2	-7.55036
10.3	-7.67912
10.4	-7.80467
10.5	-7.92711
10.6	-8.04656
10.7	-8.16313
10.8	-8.27692
10.9	-8.38803
11	-8.49655
11.1	-8.60257
11.2	-8.70618
11.3	-8.80747
11.4	-8.90651
11.5	-9.00339
11.6	-9.09816
11.7	-9.19092
11.8	-9.28171
11.9	-9.37062
12	-9.45769
12.1	-9.543
12.2	-9.62659
12.3	-9.70853
12.4	-9.78887
12.5	-9.86765
12.6	-9.94493
12.7	-10.0208
12.8	-10.0952
12.9	-10.1682
13	-10.24
13.1	-10.3104
13.2	-10.3796
13.3	-10.4476
13.4	-10.5144
13.5	-10.5801
13.6	-10.6447
13.7	-10.7082
13.8	-10.7706
13.9	-10.8321
14	-10.8925
14.1	-10.9521
14.2	-11.0106
14.3	-11.0683
14.4	-11.1251
14.5	-11.1811
14.6	-11.2362
14.7	-11.2905
14.8	-11.344
14.9	-11.3967
15	-11.4487
15.1	-11.5
15.2	-11.5505
15.3	-11.6004
15.4	-11.6496
15.5	-11.6981
15.6	-11.7459
15.7	-11.7932
15.8	-11.8398
15.9	-11.8858
16	-11.9313
16.1	-11.9761
16.2	-12.0204
16.3	-12.0641
16.4	-12.1073
16.5	-12.15
16.6	-12.1922
16.7	-12.2338
16.8	-12.275
16.9	-12.3156
17	-12.3558
17.1	-12.3955
17.2	-12.4348
17.3	-12.4736
17.4	-12.512
17.5	-12.5499
17.6	-12.5874
17.7	-12.6245
17.8	-12.6612
17.9	-12.6974
18	-12.7333
18.1	-12.7688
18.2	-12.8039
18.3	-12.8386
18.4	-12.8729
18.5	-12.9068
18.6	-12.9404
18.7	-12.9736
18.8	-13.0065
18.9	-13.039
19	-13.0712
19.1	-13.103
19.2	-13.1345
19.3	-13.1656
19.4	-13.1965
19.5	-13.2269
19.6	-13.2571
19.7	-13.287
19.8	-13.3165
19.9	-13.3457
20	-13.3746
20.1	-13.4032
20.2	-13.4314
20.3	-13.4594
20.4	-13.4871
20.5	-13.5144
20.6	-13.5415
20.7	-13.5683
20.8	-13.5948
20.9	-13.621
21	-13.6468
21.1	-13.6725
21.2	-13.6978
21.3	-13.7228
21.4	-13.7476
21.5	-13.772
21.6	-13.7962
21.7	-13.8201
21.8	-13.8438
21.9	-13.8671
22	-13.8902
22.1	-13.913
22.2	-13.9355
22.3	-13.9577
22.4	-13.9797
22.5	-14.0014
22.6	-14.0228
22.7	-14.044
22.8	-14.0649
22.9	-14.0855
23	-14.1058
23.1	-14.1259
23.2	-14.1457
23.3	-14.1652
23.4	-14.1845
23.5	-14.2035
23.6	-14.2222
23.7	-14.2407
23.8	-14.2588
23.9	-14.2768
24	-14.2944
24.1	-14.3118
24.2	-14.3289
24.3	-14.3457
24.4	-14.3623
24.5	-14.3786
24.6	-14.3946
24.7	-14.4104
24.8	-14.4259
24.9	-14.4411
25	-14.4561
25.1	-14.4708
25.2	-14.4852
25.3	-14.4993
25.4	-14.5132
25.5	-14.5268
25.6	-14.5401
25.7	-14.5532
25.8	-14.5659
25.9	-14.5784
26	-14.5907
26.1	-14.6026
26.2	-14.6143
26.3	-14.6257
26.4	-14.6368
26.5	-14.6477
26.6	-14.6582
26.7	-14.6685
26.8	-14.6785
26.9	-14.6882
27	-14.6977
27.1	-14.7069
27.2	-14.7158
27.3	-14.7244
27.4	-14.7327
27.5	-14.7407
27.6	-14.7485
27.7	-14.7559
27.8	-14.7631
27.9	-14.77
28	-14.7766
28.1	-14.7829
28.2	-14.789
28.3	-14.7947
28.4	-14.8001
28.5	-14.8053
28.6	-14.8102
28.7	-14.8147
28.8	-14.819
28.9	-14.823
29	-14.8267
29.1	-14.8301
29.2	-14.8332
29.3	-14.836
29.4	-14.8385
29.5	-14.8407
29.6	-14.8426
29.7	-14.8442
29.8	-14.8456
29.9	-14.8466
30	-14.8473
30.1	-14.8477
30.2	-14.8478
30.3	-14.8476
30.4	-14.8471
30.5	-14.8463
30.6	-14.8452
30.7	-14.8437
30.8	-14.842
30.9	-14.84
31	-14.8376
31.1	-14.835
31.2	-14.832
31.3	-14.8288
31.4	-14.8252
31.5	-14.8213
31.6	-14.8171
31.7	-14.8126
31.8	-14.8077
31.9	-14.8026
32	-14.7971
32.1	-14.7914
32.2	-14.7853
32.3	-14.7789
32.4	-14.7722
32.5	-14.7651
32.6	-14.7578
32.7	-14.7501
32.8	-14.7421
32.9	-14.7338
33	-14.7251
33.1	-14.7162
33.2	-14.7069
33.3	-14.6973
33.4	-14.6874
33.5	-14.6771
33.6	-14.6666
33.7	-14.6557
33.8	-14.6444
33.9	-14.6329
34	-14.621
34.1	-14.6088
34.2	-14.5963
34.3	-14.5834
34.4	-14.5702
34.5	-14.5567
34.6	-14.5428
34.7	-14.5286
34.8	-14.5141
34.9	-14.4992
35	-14.484
35.1	-14.4685
35.2	-14.4526
35.3	-14.4364
35.4	-14.4199
35.5	-14.403
35.6	-14.3857
35.7	-14.3682
35.8	-14.3503
35.9	-14.332
36	-14.3134
36.1	-14.2945
36.2	-14.2752
36.3	-14.2556
36.4	-14.2356
36.5	-14.2153
36.6	-14.1947
36.7	-14.1736
36.8	-14.1523
36.9	-14.1306
37	-14.1085
37.1	-14.0861
37.2	-14.0633
37.3	-14.0402
37.4	-14.0167
37.5	-13.9929
37.6	-13.9687
37.7	-13.9442
37.8	-13.9193
37.9	-13.894
38	-13.8684
38.1	-13.8424
38.2	-13.8161
38.3	-13.7894
38.4	-13.7623
38.5	-13.7349
38.6	-13.7071
38.7	-13.679
38.8	-13.6505
38.9	-13.6216
39	-13.5923
39.1	-13.5627
39.2	-13.5327
39.3	-13.5023
39.4	-13.4716
39.5	-13.4405
39.6	-13.409
39.7	-13.3771
39.8	-13.3449
39.9	-13.3123
40	-13.2793
40.1	-13.2459
40.2	-13.2121
40.3	-13.178
40.4	-13.1435
40.5	-13.1086
40.6	-13.0733
40.7	-13.0376
40.8	-13.0016
40.9	-12.9651
41	-12.9283
41.1	-12.8911
41.2	-12.8535
41.3	-12.8155
41.4	-12.7771
41.5	-12.7383
41.6	-12.6991
41.7	-12.6595
41.8	-12.6195
41.9	-12.5791
42	-12.5384
42.1	-12.4972
42.2	-12.4556
42.3	-12.4136
42.4	-12.3712
42.5	-12.3284
42.6	-12.2852
42.7	-12.2416
42.8	-12.1975
42.9	-12.1531
43	-12.1083
43.1	-12.063
43.2	-12.0173
43.3	-11.9712
43.4	-11.9247
43.5	-11.8778
43.6	-11.8304
43.7	-11.7826
43.8	-11.7344
43.9	-11.6858
44	-11.6367
44.1	-11.5873
44.2	-11.5373
44.3	-11.487
44.4	-11.4362
44.5	-11.385
44.6	-11.3334
44.7	-11.2813
44.8	-11.2288
44.9	-11.1758
45	-11.1224
45.1	-11.0686
45.2	-11.0143
45.3	-10.9595
45.4	-10.9043
45.5	-10.8487
45.6	-10.7926
45.7	-10.7361
45.8	-10.6791
45.9	-10.6216
46	-10.5637
46.1	-10.5054
46.2	-10.4465
46.3	-10.3873
46.4	-10.3275
46.5	-10.2673
46.6	-10.2066
46.7	-10.1454
46.8	-10.0838
46.9	-10.0217
47	-9.95915
47.1	-9.8961
47.2	-9.83257
47.3	-9.76856
47.4	-9.70407
47.5	-9.63909
47.6	-9.57363
47.7	-9.50768
47.8	-9.44125
47.9	-9.37432
48	-9.3069
48.1	-9.23899
48.2	-9.17058
48.3	-9.10167
48.4	-9.03227
48.5	-8.96236
48.6	-8.89195
48.7	-8.82103
48.8	-8.74961
48.9	-8.67768
49	-8.60523
49.1	-8.53228
49.2	-8.45881
49.3	-8.38483
49.4	-8.31033
49.5	-8.23531
49.6	-8.15976
49.7	-8.0837
49.8	-8.00711
49.9	-7.93
50	-7.85235
50.1	-7.77418
50.2	-7.69548
50.3	-7.61624
50.4	-7.53647
50.5	-7.45617
50.6	-7.37532
50.7	-7.29394
50.8	-7.21202
50.9	-7.12955
51	-7.04654
51.1	-6.96299
51.2	-6.87889
51.3	-6.79425
51.4	-6.70905
51.5	-6.62331
51.6	-6.53701
51.7	-6.45016
51.8	-6.36276
51.9	-6.2748
52	-6.18629
52.1	-6.09722
52.2	-6.0076
52.3	-5.91741
52.4	-5.82667
52.5	-5.73537
52.6	-5.64351
52.7	-5.55108
52.8	-5.4581
52.9	-5.36455
53	-5.27045
53.1	-5.17578
53.2	-5.08055
53.3	-4.98475
53.4	-4.8884
53.5	-4.79148
53.6	-4.694
53.7	-4.59596
53.8	-4.49737
53.9	-4.39821
54	-4.29849
54.1	-4.19821
54.2	-4.09738
54.3	-3.99599
54.4	-3.89404
54.5	-3.79154
54.6	-3.68849
54.7	-3.5849
54.8	-3.48075
54.9	-3.37606
55	-3.27082
55.1	-3.16504
55.2	-3.05873
55.3	-2.95188
55.4	-2.84449
55.5	-2.73658
55.6	-2.62814
55.7	-2.51918
55.8	-2.4097
55.9	-2.29971
56	-2.18921
56.1	-2.0782
56.2	-1.96669
56.3	-1.85469
56.4	-1.74219
56.5	-1.62921
56.6	-1.51575
56.7	-1.40181
56.8	-1.28741
56.9	-1.17255
57	-1.05724
57.1	-0.941474
57.2	-0.825272
57.3	-0.708638
57.4	-0.59158
57.5	-0.474107
57.6	-0.356226
57.7	-0.237946
57.8	-0.119277
57.9	-0.000227947
58	0.119192
58.1	0.238972
58.2	0.359103
58.3	0.479573
58.4	0.600372
58.5	0.721489
58.6	0.842912
58.7	0.96463
58.8	1.08663
58.9	1.2089
59	1.33143
59.1	1.4542
59.2	1.5772
59.3	1.70042
59.4	1.82385
59.5	1.94747
59.6	2.07126
59.7	2.19521
59.8	2.31931
59.9	2.44354
60	2.56788
60.1	2.69233
60.2	2.81686
60.3	2.94146
60.4	3.06611
60.5	3.1908
60.6	3.3155
60.7	3.44021
60.8	3.56491
60.9	3.68957
61	3.81419
61.1	3.93874
61.2	4.06321
61.3	4.18758
61.4	4.31184
61.5	4.43595
61.6	4.55992
61.7	4.68372
61.8	4.80732
61.9	4.93072
62	5.0539
62.1	5.17684
62.2	5.29952
62.3	5.42193
62.4	5.54404
62.5	5.66584
62.6	5.78731
62.7	5.90844
62.8	6.02921
62.9	6.1496
63	6.26959
63.1	6.38918
63.2	6.50833
63.3	6.62705
63.4	6.7453
63.5	6.86308
63.6	6.98037
63.7	7.09715
63.8	7.21341
63.9	7.32914
64	7.44432
64.1	7.55894
64.2	7.67298
64.3	7.78643
64.4	7.89928
64.5	8.01151
64.6	8.12312
64.7	8.23408
64.8	8.3444
64.9	8.45405
65	8.56302
65.1	8.67132
65.2	8.77892
65.3	8.88581
65.4	8.99199
65.5	9.09745
65.6	9.20218
65.7	9.30617
65.8	9.4094
65.9	9.51189
66	9.61361
66.1	9.71456
66.2	9.81473
66.3	9.91412
66.4	10.0127
66.5	10.1105
66.6	10.2075
66.7	10.3037
66.8	10.3991
66.9	10.4937
67	10.5875
67.1	10.6804
67.2	10.7725
67.3	10.8638
67.4	10.9543
67.5	11.0439
67.6	11.1327
67.7	11.2207
67.8	11.3078
67.9	11.3941
68	11.4796
68.1	11.5642
68.2	11.6479
68.3	11.7309
68.4	11.813
68.5	11.8942
68.6	11.9746
68.7	12.0542
68.8	12.133
68.9	12.2109
69	12.2879
69.1	12.3642
69.2	12.4396
69.3	12.5141
69.4	12.5879
69.5	12.6608
69.6	12.7329
69.7	12.8042
69.8	12.8747
69.9	12.9443
70	13.0132
70.1	13.0812
70.2	13.1484
70.3	13.2148
70.4	13.2805
70.5	13.3453
70.6	13.4093
70.7	13.4726
70.8	13.5351
70.9	13.5968
71	13.6577
71.1	13.7178
71.2	13.7772
71.3	13.8358
71.4	13.8937
71.5	13.9508
71.6	14.0072
71.7	14.0628
71.8	14.1177
71.9	14.1718
72	14.2252
72.1	14.2779
72.2	14.3298
72.3	14.3811
72.4	14.4316
72.5	14.4814
72.6	14.5306
72.7	14.579
72.8	14.6267
72.9	14.6738
73	14.7201
73.1	14.7658
73.2	14.8108
73.3	14.8552
73.4	14.8989
73.5	14.9419
73.6	14.9842
73.7	15.026
73.8	15.067
73.9	15.1075
74	15.1473
74.1	15.1865
74.2	15.225
74.3	15.2629
74.4	15.3002
74.5	15.337
74.6	15.3731
74.7	15.4086
74.8	15.4435
74.9	15.4778
75	15.5115
75.1	15.5447
75.2	15.5772
75.3	15.6092
75.4	15.6407
75.5	15.6715
75.6	15.7019
75.7	15.7316
75.8	15.7608
75.9	15.7895
76	15.8176
76.1	15.8452
76.2	15.8723
76.3	15.8988
76.4	15.9248
76.5	15.9503
76.6	15.9753
76.7	15.9998
76.8	16.0238
76.9	16.0473
77	16.0702
77.1	16.0927
77.2	16.1147
77.3	16.1362
77.4	16.1573
77.5	16.1778
77.6	16.1979
77.7	16.2176
77.8	16.2367
77.9	16.2554
78	16.2737
78.1	16.2915
78.2	16.3088
78.3	16.3257
78.4	16.3422
78.5	16.3582
78.6	16.3738
78.7	16.389
78.8	16.4037
78.9	16.4181
79	16.432
79.1	16.4455
79.2	16.4586
79.3	16.4712
79.4	16.4835
79.5	16.4954
79.6	16.5069
79.7	16.518
79.8	16.5286
79.9	16.539
80	16.5489
80.1	16.5584
80.2	16.5676
80.3	16.5764
80.4	16.5848
80.5	16.5929
80.6	16.6006
80.7	16.6079
80.8	16.6149
80.9	16.6216
81	16.6278
81.1	16.6338
81.2	16.6394
81.3	16.6446
81.4	16.6495
81.5	16.6541
81.6	16.6583
81.7	16.6622
81.8	16.6658
81.9	16.669
82	16.672
82.1	16.6746
82.2	16.6769
82.3	16.6789
82.4	16.6805
82.5	16.6819
82.6	16.683
82.7	16.6837
82.8	16.6842
82.9	16.6843
83	16.6842
83.1	16.6838
83.2	16.683
83.3	16.682
83.4	16.6807
83.5	16.6792
83.6	16.6773
83.7	16.6752
83.8	16.6728
83.9	16.6701
84	16.6671
84.1	16.6639
84.2	16.6604
84.3	16.6567
84.4	16.6527
84.5	16.6484
84.6	16.6438
84.7	16.6391
84.8	16.634
84.9	16.6287
85	16.6232
85.1	16.6174
85.2	16.6114
85.3	16.6051
85.4	16.5986
85.5	16.5918
85.6	16.5849
85.7	16.5776
85.8	16.5702
85.9	16.5625
86	16.5546
86.1	16.5464
86.2	16.5381
86.3	16.5295
86.4	16.5207
86.5	16.5117
86.6	16.5024
86.7	16.493
86.8	16.4833
86.9	16.4734
87	16.4633
87.1	16.453
87.2	16.4425
87.3	16.4318
87.4	16.4209
87.5	16.4098
87.6	16.3984
87.7	16.3869
87.8	16.3752
87.9	16.3633
88	16.3512
88.1	16.3389
88.2	16.3265
88.3	16.3138
88.4	16.3009
88.5	16.2879
88.6	16.2747
88.7	16.2613
88.8	16.2477
88.9	16.2339
89	16.22
89.1	16.2059
89.2	16.1916
89.3	16.1771
89.4	16.1625
89.5	16.1477
89.6	16.1327
89.7	16.1176
89.8	16.1023
89.9	16.0868
90	16.0712
90.1	16.0554
90.2	16.0394
90.3	16.0233
90.4	16.007
90.5	15.9906
90.6	15.974
90.7	15.9573
90.8	15.9404
90.9	15.9234
91	15.9062
91.1	15.8888
91.2	15.8714
91.3	15.8537
91.4	15.836
91.5	15.818
91.6	15.8
91.7	15.7818
91.8	15.7634
91.9	15.7449
92	15.7263
92.1	15.7076
92.2	15.6887
92.3	15.6696
92.4	15.6505
92.5	15.6312
92.6	15.6118
92.7	15.5922
92.8	15.5725
92.9	15.5527
93	15.5328
93.1	15.5127
93.2	15.4925
93.3	15.4722
93.4	15.4518
93.5	15.4312
93.6	15.4105
93.7	15.3897
93.8	15.3688
93.9	15.3478
94	15.3266
94.1	15.3054
94.2	15.284
94.3	15.2625
94.4	15.2409
94.5	15.2192
94.6	15.1973
94.7	15.1754
94.8	15.1533
94.9	15.1312
95	15.1089
95.1	15.0865
95.2	15.0641
95.3	15.0415
95.4	15.0188
95.5	14.996
95.6	14.9731
95.7	14.9501
95.8	14.927
95.9	14.9038
96	14.8805
96.1	14.8571
96.2	14.8336
96.3	14.8101
96.4	14.7864
96.5	14.7626
96.6	14.7387
96.7	14.7148
96.8	14.6907
96.9	14.6666
97	14.6423
97.1	14.618
97.2	14.5936
97.3	14.5691
97.4	14.5445
97.5	14.5198
97.6	14.495
97.7	14.4702
97.8	14.4453
97.9	14.4202
98	14.3951
98.1	14.3699
98.2	14.3447
98.3	14.3193
98.4	14.2939
98.5	14.2684
98.6	14.2428
98.7	14.2171
98.8	14.1913
98.9	14.1655
99	14.1396
99.1	14.1136
99.2	14.0876
99.3	14.0614
99.4	14.0352
99.5	14.0089
99.6	13.9826
99.7	13.9561
99.8	13.9296
99.9	13.9031
100	13.8764
100.1	13.8497
100.2	13.8229
100.3	13.7961
100.4	13.7691
100.5	13.7421
100.6	13.7151
100.7	13.688
100.8	13.6608
100.9	13.6335
101	13.6062
101.1	13.5788
101.2	13.5513
101.3	13.5238
101.4	13.4962
101.5	13.4686
101.6	13.4409
101.7	13.4131
101.8	13.3853
101.9	13.3574
102	13.3295
102.1	13.3014
102.2	13.2734
102.3	13.2452
102.4	13.2171
102.5	13.1888
102.6	13.1605
102.7	13.1322
102.8	13.1037
102.9	13.0753
103	13.0467
103.1	13.0182
103.2	12.9895
103.3	12.9608
103.4	12.9321
103.5	12.9033
103.6	12.8744
103.7	12.8455
103.8	12.8166
103.9	12.7875
104	12.7585
104.1	12.7294
104.2	12.7002
104.3	12.671
104.4	12.6417
104.5	12.6124
104.6	12.583
104.7	12.5536
104.8	12.5242
104.9	12.4947
105	12.4651
105.1	12.4355
105.2	12.4058
105.3	12.3761
105.4	12.3464
105.5	12.3166
105.6	12.2868
105.7	12.2569
105.8	12.227
105.9	12.197
106	12.167
106.1	12.1369
106.2	12.1068
106.3	12.0767
106.4	12.0465
106.5	12.0163
106.6	11.986
106.7	11.9557
106.8	11.9253
106.9	11.8949
107	11.8645
107.1	11.834
107.2	11.8035
107.3	11.7729
107.4	11.7423
107.5	11.7117
107.6	11.681
107.7	11.6503
107.8	11.6195
107.9	11.5887
108	11.5579
108.1	11.527
108.2	11.4961
108.3	11.4651
108.4	11.4341
108.5	11.4031
108.6	11.372
108.7	11.3409
108.8	11.3098
108.9	11.2786
109	11.2474
109.1	11.2162
109.2	11.1849
109.3	11.1536
109.4	11.1222
109.5	11.0909
109.6	11.0594
109.7	11.028
109.8	10.9965
109.9	10.965
110	10.9334
110.1	10.9018
110.2	10.8702
110.3	10.8386
110.4	10.8069
110.5	10.7751
110.6	10.7434
110.7	10.7116
110.8	10.6798
110.9	10.6479
111	10.6161
111.1	10.5841
111.2	10.5522
111.3	10.5202
111.4	10.4882
111.5	10.4562
111.6	10.4241
111.7	10.392
111.8	10.3599
111.9	10.3277
112	10.2955
112.1	10.2633
112.2	10.231
112.3	10.1987
112.4	10.1664
112.5	10.1341
112.6	10.1017
112.7	10.0693
112.8	10.0369
112.9	10.0044
113	9.97194
113.1	9.93943
113.2	9.90688
113.3	9.87431
113.4	9.8417
113.5	9.80907
113.6	9.77641
113.7	9.74373
113.8	9.71101
113.9	9.67827
114	9.6455
114.1	9.6127
114.2	9.57987
114.3	9.54702
114.4	9.51414
114.5	9.48123
114.6	9.4483
114.7	9.41533
114.8	9.38234
114.9	9.34933
115	9.31629
115.1	9.28322
115.2	9.25012
115.3	9.217
115.4	9.18385
115.5	9.15067
115.6	9.11747
115.7	9.08424
115.8	9.05098
115.9	9.0177
116	8.9844
116.1	8.95106
116.2	8.9177
116.3	8.88432
116.4	8.85091
116.5	8.81747
116.6	8.78401
116.7	8.75052
116.8	8.717
116.9	8.68346
117	8.6499
117.1	8.61631
117.2	8.58269
117.3	8.54905
117.4	8.51538
117.5	8.48169
117.6	8.44797
117.7	8.41423
117.8	8.38046
117.9	8.34667
118	8.31285
118.1	8.279
118.2	8.24514
118.3	8.21124
118.4	8.17732
118.5	8.14338
118.6	8.10941
118.7	8.07541
118.8	8.04139
118.9	8.00735
119	7.97328
119.1	7.93918
119.2	7.90506
119.3	7.87092
119.4	7.83675
119.5	7.80255
119.6	7.76833
119.7	7.73409
119.8	7.69982
119.9	7.66552
120	7.6312
120.1	7.59686
120.2	7.56249
120.3	7.52809
120.4	7.49367
120.5	7.45923
120.6	7.42476
120.7	7.39026
120.8	7.35574
120.9	7.3212
121	7.28663
121.1	7.25203
121.2	7.21741
121.3	7.18277
121.4	7.1481
121.5	7.1134
121.6	7.07868
121.7	7.04393
121.8	7.00916
121.9	6.97436
122	6.93954
122.1	6.90469
122.2	6.86982
122.3	6.83492
122.4	6.79999
122.5	6.76504
122.6	6.73007
122.7	6.69507
122.8	6.66004
122.9	6.62499
123	6.58991
123.1	6.5548
123.2	6.51967
123.3	6.48452
123.4	6.44934
123.5	6.41413
123.6	6.37889
123.7	6.34363
123.8	6.30835
123.9	6.27304
124	6.2377
124.1	6.20233
124.2	6.16694
124.3	6.13152
124.4	6.09608
124.5	6.06061
124.6	6.02511
124.7	5.98959
124.8	5.95404
124.9	5.91846
125	5.88286
125.1	5.84723
125.2	5.81157
125.3	5.77589
125.4	5.74018
125.5	5.70444
125.6	5.66867
125.7	5.63288
125.8	5.59706
125.9	5.56121
126	5.52533
126.1	5.48943
126.2	5.4535
126.3	5.41754
126.4	5.38156
126.5	5.34554
126.6	5.3095
126.7	5.27343
126.8	5.23734
126.9	5.20121
127	5.16506
127.1	5.12887
127.2	5.09266
127.3	5.05642
127.4	5.02016
127.5	4.98386
127.6	4.94753
127.7	4.91118
127.8	4.8748
127.9	4.83839
128	4.80194
128.1	4.76547
128.2	4.72898
128.3	4.69245
128.4	4.65589
128.5	4.6193
128.6	4.58269
128.7	4.54604
128.8	4.50936
128.9	4.47266
129	4.43592
129.1	4.39916
129.2	4.36236
129.3	4.32553
129.4	4.28868
129.5	4.25179
129.6	4.21487
129.7	4.17793
129.8	4.14095
129.9	4.10394
130	4.0669
130.1	4.02983
130.2	3.99273
130.3	3.95559
130.4	3.91843
130.5	3.88123
130.6	3.84401
130.7	3.80675
130.8	3.76946
130.9	3.73214
131	3.69478
131.1	3.6574
131.2	3.61998
131.3	3.58253
131.4	3.54505
131.5	3.50754
131.6	3.46999
131.7	3.43241
131.8	3.3948
131.9	3.35716
132	3.31948
132.1	3.28177
132.2	3.24403
132.3	3.20626
132.4	3.16845
132.5	3.13061
132.6	3.09273
132.7	3.05482
132.8	3.01688
132.9	2.97891
133	2.9409
133.1	2.90286
133.2	2.86478
133.3	2.82667
133.4	2.78852
133.5	2.75034
133.6	2.71213
133.7	2.67388
133.8	2.6356
133.9	2.59729
134	2.55893
134.1	2.52055
134.2	2.48213
134.3	2.44367
134.4	2.40518
134.5	2.36665
134.6	2.32809
134.7	2.2895
134.8	2.25086
134.9	2.2122
135	2.17349
135.1	2.13476
135.2	2.09598
135.3	2.05717
135.4	2.01832
135.5	1.97944
135.6	1.94052
135.7	1.90157
135.8	1.86258
135.9	1.82355
136	1.78448
136.1	1.74538
136.2	1.70625
136.3	1.66707
136.4	1.62786
136.5	1.58861
136.6	1.54933
136.7	1.51001
136.8	1.47065
136.9	1.43125
137	1.39181
137.1	1.35234
137.2	1.31283
137.3	1.27329
137.4	1.2337
137.5	1.19408
137.6	1.15442
137.7	1.11472
137.8	1.07498
137.9	1.03521
138	0.995397
138.1	0.955546
138.2	0.915657
138.3	0.875729
138.4	0.835763
138.5	0.795758
138.6	0.755715
138.7	0.715633
138.8	0.675512
138.9	0.635352
139	0.595153
139.1	0.554915
139.2	0.514638
139.3	0.474322
139.4	0.433967
139.5	0.393572
139.6	0.353139
139.7	0.312665
139.8	0.272152
139.9	0.2316
140	0.191008
140.1	0.150377
140.2	0.109705
140.3	0.0689944
140.4	0.0282435
140.5	-0.0125472
140.6	-0.0533779
140.7	-0.0942486
140.8	-0.135159
140.9	-0.17611
141	-0.217101
141.1	-0.258132
141.2	-0.299204
141.3	-0.340316
141.4	-0.381468
141.5	-0.42266
141.6	-0.463893
141.7	-0.505167
141.8	-0.546481
141.9	-0.587835
142	-0.62923
142.1	-0.670666
142.2	-0.712143
142.3	-0.75366
142.4	-0.795218
142.5	-0.836816
142.6	-0.878456
142.7	-0.920136
142.8	-0.961857
142.9	-1.00362
143	-1.04542
143.1	-1.08727
143.2	-1.12915
143.3	-1.17108
143.4	-1.21304
143.5	-1.25505
143.6	-1.2971
143.7	-1.33919
143.8	-1.38132
143.9	-1.4235
144	-1.46571
144.1	-1.50796
144.2	-1.55026
144.3	-1.5926
144.4	-1.63498
144.5	-1.6774
144.6	-1.71986
144.7	-1.76236
144.8	-1.8049
144.9	-1.84749
145	-1.89011
145.1	-1.93278
145.2	-1.97549
145.3	-2.01823
145.4	-2.06102
145.5	-2.10386
145.6	-2.14673
145.7	-2.18964
145.8	-2.2326
145.9	-2.27559
146	-2.31863
146.1	-2.36171
146.2	-2.40483
146.3	-2.44799
146.4	-2.49119
146.5	-2.53443
146.6	-2.57771
146.7	-2.62104
146.8	-2.6644
146.9	-2.70781
147	-2.75125
147.1	-2.79474
147.2	-2.83827
147.3	-2.88184
147.4	-2.92545
147.5	-2.9691
147.6	-3.01279
147.7	-3.05652
147.8	-3.10029
147.9	-3.14411
148	-3.18796
148.1	-3.23185
148.2	-3.27579
148.3	-3.31976
148.4	-3.36377
148.5	-3.40783
148.6	-3.45192
148.7	-3.49606
148.8	-3.54023
148.9	-3.58445
149	-3.6287
149.1	-3.67299
149.2	-3.71733
149.3	-3.7617
149.4	-3.80612
149.5	-3.85057
149.6	-3.89506
149.7	-3.93959
149.8	-3.98416
149.9	-4.02877
150	-4.07342
150.1	-4.11811
150.2	-4.16284
150.3	-4.2076
150.4	-4.25241
150.5	-4.29725
150.6	-4.34213
150.7	-4.38705
150.8	-4.43201
150.9	-4.47701
151	-4.52205
151.1	-4.56712
151.2	-4.61223
151.3	-4.65738
151.4	-4.70257
151.5	-4.74779
151.6	-4.79306
151.7	-4.83836
151.8	-4.8837
151.9	-4.92907
152	-4.97448
152.1	-5.01993
152.2	-5.06542
152.3	-5.11094
152.4	-5.1565
152.5	-5.2021
152.6	-5.24773
152.7	-5.2934
152.8	-5.33911
152.9	-5.38485
153	-5.43063
153.1	-5.47644
153.2	-5.52229
153.3	-5.56818
153.4	-5.6141
153.5	-5.66005
153.6	-5.70604
153.7	-5.75207
153.8	-5.79813
153.9	-5.84423
154	-5.89036
154.1	-5.93652
154.2	-5.98272
154.3	-6.02896
154.4	-6.07523
154.5	-6.12153
154.6	-6.16786
154.7	-6.21423
154.8	-6.26064
154.9	-6.30708
155	-6.35355
155.1	-6.40005
155.2	-6.44659
155.3	-6.49315
155.4	-6.53976
155.5	-6.58639
155.6	-6.63306
155.7	-6.67976
155.8	-6.72649
155.9	-6.77325
156	-6.82005
156.1	-6.86687
156.2	-6.91373
156.3	-6.96062
156.4	-7.00754
156.5	-7.05449
156.6	-7.10147
156.7	-7.14849
156.8	-7.19553
156.9	-7.2426
157	-7.28971
157.1	-7.33684
157.2	-7.38401
157.3	-7.4312
157.4	-7.47842
157.5	-7.52568
157.6	-7.57296
157.7	-7.62027
157.8	-7.66761
157.9	-7.71498
158	-7.76238
158.1	-7.8098
158.2	-7.85726
158.3	-7.90474
158.4	-7.95225
158.5	-7.99979
158.6	-8.04735
158.7	-8.09495
158.8	-8.14257
158.9	-8.19021
159	-8.23789
159.1	-8.28559
159.2	-8.33332
159.3	-8.38107
159.4	-8.42885
159.5	-8.47666
159.6	-8.52449
159.7	-8.57235
159.8	-8.62023
159.9	-8.66814
160	-8.71608
160.1	-8.76404
160.2	-8.81202
160.3	-8.86003
160.4	-8.90807
160.5	-8.95613
160.6	-9.00421
160.7	-9.05232
160.8	-9.10045
160.9	-9.1486
161	-9.19678
161.1	-9.24499
161.2	-9.29321
161.3	-9.34146
161.4	-9.38973
161.5	-9.43803
161.6	-9.48635
161.7	-9.53469
161.8	-9.58305
161.9	-9.63143
162	-9.67984
162.1	-9.72827
162.2	-9.77672
162.3	-9.82519
162.4	-9.87369
162.5	-9.9222
162.6	-9.97074
162.7	-10.0193
162.8	-10.0679
162.9	-10.1165
163	-10.1651
163.1	-10.2137
163.2	-10.2624
163.3	-10.3111
163.4	-10.3598
163.5	-10.4085
163.6	-10.4572
163.7	-10.506
163.8	-10.5548
163.9	-10.6036
164	-10.6524
164.1	-10.7012
164.2	-10.7501
164.3	-10.7989
164.4	-10.8478
164.5	-10.8967
164.6	-10.9457
164.7	-10.9946
164.8	-11.0436
164.9	-11.0926
165	-11.1416
165.1	-11.1906
165.2	-11.2396
165.3	-11.2887
165.4	-11.3377
165.5	-11.3868
165.6	-11.4359
165.7	-11.4851
165.8	-11.5342
165.9	-11.5833
166	-11.6325
166.1	-11.6817
166.2	-11.7309
166.3	-11.7801
166.4	-11.8294
166.5	-11.8786
166.6	-11.9279
166.7	-11.9771
166.8	-12.0264
166.9	-12.0758
167	-12.1251
167.1	-12.1744
167.2	-12.2238
167.3	-12.2732
167.4	-12.3225
167.5	-12.3719
167.6	-12.4214
167.7	-12.4708
167.8	-12.5202
167.9	-12.5697
168	-12.6192
168.1	-12.6687
168.2	-12.7182
168.3	-12.7677
168.4	-12.8172
168.5	-12.8667
168.6	-12.9163
168.7	-12.9659
168.8	-13.0155
168.9	-13.0651
169	-13.1147
169.1	-13.1643
169.2	-13.2139
169.3	-13.2636
169.4	-13.3132
169.5	-13.3629
169.6	-13.4126
169.7	-13.4623
169.8	-13.512
169.9	-13.5618
170	-13.6115
170.1	-13.6613
170.2	-13.711
170.3	-13.7608
170.4	-13.8106
170.5	-13.8604
170.6	-13.9102
170.7	-13.96
170.8	-14.0099
170.9	-14.0597
171	-14.1096
171.1	-14.1595
171.2	-14.2094
171.3	-14.2593
171.4	-14.3092
171.5	-14.3591
171.6	-14.409
171.7	-14.459
171.8	-14.5089
171.9	-14.5589
172	-14.6089
172.1	-14.6589
172.2	-14.7089
172.3	-14.7589
172.4	-14.8089
172.5	-14.859
172.6	-14.909
172.7	-14.9591
172.8	-15.0092
172.9	-15.0593
173	-15.1094
173.1	-15.1595
173.2	-15.2096
173.3	-15.2598
173.4	-15.3099
173.5	-15.3601
173.6	-15.4102
173.7	-15.4604
173.8	-15.5106
173.9	-15.5608
174	-15.6111
174.1	-15.6613
174.2	-15.7115
174.3	-15.7618
174.4	-15.8121
174.5	-15.8624
174.6	-15.9127
174.7	-15.963
174.8	-16.0133
174.9	-16.0636
175	-16.114
175.1	-16.1643
175.2	-16.2147
175.3	-16.2651
175.4	-16.3155
175.5	-16.3659
175.6	-16.4163
175.7	-16.4667
175.8	-16.5172
175.9	-16.5677
176	-16.6181
176.1	-16.6686
176.2	-16.7191
176.3	-16.7697
176.4	-16.8202
176.5	-16.8707
176.6	-16.9213
176.7	-16.9719
176.8	-17.0225
176.9	-17.0731
177	-17.1237
177.1	-17.1743
177.2	-17.225
177.3	-17.2756
177.4	-17.3263
177.5	-17.377
177.6	-17.4277
177.7	-17.4785
177.8	-17.5292
177.9	-17.58
178	-17.6307
178.1	-17.6815
178.2	-17.7323
178.3	-17.7832
178.4	-17.834
178.5	-17.8849
178.6	-17.9358
178.7	-17.9867
178.8	-18.0376
178.9	-18.0885
179	-18.1395
179.1	-18.1904
179.2	-18.2414
179.3	-18.2924
179.4	-18.3435
179.5	-18.3945
179.6	-18.4456
179.7	-18.4967
179.8	-18.5478
179.9	-18.5989
180	-18.6501
180.1	-18.7013
180.2	-18.7525
180.3	-18.8037
180.4	-18.8549
180.5	-18.9062
180.6	-18.9575
180.7	-19.0088
180.8	-19.0602
180.9	-19.1115
181	-19.1629
181.1	-19.2143
181.2	-19.2658
181.3	-19.3172
181.4	-19.3687
181.5	-19.4202
181.6	-19.4718
181.7	-19.5233
181.8	-19.5749
181.9	-19.6266
182	-19.6782
182.1	-19.7299
182.2	-19.7816
182.3	-19.8334
182.4	-19.8851
182.5	-19.9369
182.6	-19.9888
182.7	-20.0406
182.8	-20.0925
182.9	-20.1445
183	-20.1964
183.1	-20.2484
183.2	-20.3004
183.3	-20.3525
183.4	-20.4046
183.5	-20.4567
183.6	-20.5089
183.7	-20.5611
183.8	-20.6134
183.9	-20.6656
184	-20.718
184.1	-20.7703
184.2	-20.8227
184.3	-20.8751
184.4	-20.9276
184.5	-20.9801
184.6	-21.0327
184.7	-21.0853
184.8	-21.1379
184.9	-21.1906
185	-21.2434
185.1	-21.2961
185.2	-21.349
185.3	-21.4018
185.4	-21.4547
185.5	-21.5077
185.6	-21.5607
185.7	-21.6138
185.8	-21.6669
185.9	-21.72
186	-21.7732
186.1	-21.8265
186.2	-21.8798
186.3	-21.9332
186.4	-21.9866
186.5	-22.0401
186.6	-22.0936
186.7	-22.1472
186.8	-22.2008
186.9	-22.2545
187	-22.3083
187.1	-22.3621
187.2	-22.416
187.3	-22.4699
187.4	-22.5239
187.5	-22.578
187.6	-22.6321
187.7	-22.6863
187.8	-22.7405
187.9	-22.7948
188	-22.8492
188.1	-22.9037
188.2	-22.9582
188.3	-23.0128
188.4	-23.0674
188.5	-23.1222
188.6	-23.177
188.7	-23.2318
188.8	-23.2868
188.9	-23.3418
189	-23.3969
189.1	-23.4521
189.2	-23.5073
189.3	-23.5627
189.4	-23.6181
189.5	-23.6736
189.6	-23.7291
189.7	-23.7848
189.8	-23.8405
189.9	-23.8964
190	-23.9523
190.1	-24.0083
190.2	-24.0644
190.3	-24.1205
190.4	-24.1768
190.5	-24.2332
190.6	-24.2896
190.7	-24.3462
190.8	-24.4028
190.9	-24.4595
191	-24.5164
191.1	-24.5733
191.2	-24.6303
191.3	-24.6875
191.4	-24.7447
191.5	-24.802
191.6	-24.8595
191.7	-24.917
191.8	-24.9747
191.9	-25.0324
192	-25.0903
192.1	-25.1483
192.2	-25.2063
192.3	-25.2646
192.4	-25.3229
192.5	-25.3813
192.6	-25.4398
192.7	-25.4985
192.8	-25.5573
192.9	-25.6162
193	-25.6752
193.1	-25.7344
193.2	-25.7936
193.3	-25.853
193.4	-25.9125
193.5	-25.9722
193.6	-26.032
193.7	-26.0919
193.8	-26.1519
193.9	-26.2121
194	-26.2724
194.1	-26.3329
194.2	-26.3934
194.3	-26.4542
194.4	-26.515
194.5	-26.576
194.6	-26.6372
194.7	-26.6985
194.8	-26.7599
194.9	-26.8215
195	-26.8832
195.1	-26.9451
195.2	-27.0071
195.3	-27.0693
195.4	-27.1317
195.5	-27.1942
195.6	-27.2568
195.7	-27.3196
195.8	-27.3826
195.9	-27.4457
196	-27.509
196.1	-27.5725
196.2	-27.6361
196.3	-27.6999
196.4	-27.7639
196.5	-27.828
196.6	-27.8923
196.7	-27.9568
196.8	-28.0214
196.9	-28.0862
197	-28.1512
197.1	-28.2164
197.2	-28.2818
197.3	-28.3473
197.4	-28.413
197.5	-28.4789
197.6	-28.545
197.7	-28.6113
197.8	-28.6777
197.9	-28.7444
198	-28.8112
198.1	-28.8783
198.2	-28.9455
198.3	-29.0129
198.4	-29.0806
198.5	-29.1484
198.6	-29.2164
198.7	-29.2846
198.8	-29.3531
198.9	-29.4217
199	-29.4905
199.1	-29.5596
199.2	-29.6288
199.3	-29.6983
199.4	-29.7679
199.5	-29.8378
199.6	-29.9079
199.7	-29.9782
199.8	-30.0487
199.9	-30.1195
200	-30.1904
200.1	-30.2616
200.2	-30.333
200.3	-30.4047
200.4	-30.4765
200.5	-30.5486
200.6	-30.6209
200.7	-30.6934
200.8	-30.7662
200.9	-30.8392
201	-30.9124
201.1	-30.9858
201.2	-31.0595
201.3	-31.1335
201.4	-31.2076
201.5	-31.282
201.6	-31.3567
201.7	-31.4315
201.8	-31.5067
201.9	-31.582
202	-31.6576
202.1	-31.7335
202.2	-31.8096
202.3	-31.8859
202.4	-31.9625
202.5	-32.0394
202.6	-32.1165
202.7	-32.1939
202.8	-32.2715
202.9	-32.3493
203	-32.4275
203.1	-32.5058
203.2	-32.5845
203.3	-32.6634
203.4	-32.7425
203.5	-32.8219
203.6	-32.9016
203.7	-32.9816
203.8	-33.0618
203.9	-33.1423
204	-33.223
204.1	-33.304
204.2	-33.3853
204.3	-33.4669
204.4	-33.5487
204.5	-33.6308
204.6	-33.7132
204.7	-33.7958
204.8	-33.8788
204.9	-33.962
205	-34.0455
205.1	-34.1292
205.2	-34.2133
205.3	-34.2976
205.4	-34.3822
205.5	-34.4671
205.6	-34.5523
205.7	-34.6378
205.8	-34.7235
205.9	-34.8096
206	-34.8959
206.1	-34.9825
206.2	-35.0694
206.3	-35.1566
206.4	-35.2442
206.5	-35.332
206.6	-35.42
206.7	-35.5084
206.8	-35.5971
206.9	-35.6861
207	-35.7754
207.1	-35.865
207.2	-35.9549
207.3	-36.0451
207.4	-36.1356
207.5	-36.2264
207.6	-36.3176
207.7	-36.409
207.8	-36.5007
207.9	-36.5928
208	-36.6852
208.1	-36.7778
208.2	-36.8708
208.3	-36.9642
208.4	-37.0578
208.5	-37.1517
208.6	-37.246
208.7	-37.3406
208.8	-37.4355
208.9	-37.5307
209	-37.6263
209.1	-37.7222
209.2	-37.8184
209.3	-37.915
209.4	-38.0118
209.5	-38.109
209.6	-38.2066
209.7	-38.3045
209.8	-38.4027
209.9	-38.5012
210	-38.6001
210.1	-38.6994
210.2	-38.7989
210.3	-38.8988
210.4	-38.9991
210.5	-39.0997
210.6	-39.2007
210.7	-39.302
210.8	-39.4036
210.9	-39.5057
211	-39.608
211.1	-39.7107
211.2	-39.8138
211.3	-39.9173
211.4	-40.0211
211.5	-40.1252
211.6	-40.2298
211.7	-40.3346
211.8	-40.4399
211.9	-40.5455
212	-40.6515
212.1	-40.7579
212.2	-40.8647
212.3	-40.9718
212.4	-41.0793
212.5	-41.1872
212.6	-41.2955
212.7	-41.4041
212.8	-41.5132
212.9	-41.6226
213	-41.7325
213.1	-41.8427
213.2	-41.9533
213.3	-42.0643
213.4	-42.1757
213.5	-42.2875
213.6	-42.3998
213.7	-42.5124
213.8	-42.6254
213.9	-42.7389
214	-42.8527
214.1	-42.967
214.2	-43.0817
214.3	-43.1968
214.4	-43.3123
214.5	-43.4283
214.6	-43.5447
214.7	-43.6615
214.8	-43.7788
214.9	-43.8964
215	-44.0146
215.1	-44.1331
215.2	-44.2521
215.3	-44.3716
215.4	-44.4915
215.5	-44.6119
215.6	-44.7327
215.7	-44.854
215.8	-44.9757
215.9	-45.0979
216	-45.2205
216.1	-45.3437
216.2	-45.4673
216.3	-45.5913
216.4	-45.7159
216.5	-45.8409
216.6	-45.9665
216.7	-46.0925
216.8	-46.219
216.9	-46.346
217	-46.4735
217.1	-46.6015
217.2	-46.73
217.3	-46.859
217.4	-46.9885
217.5	-47.1186
217.6	-47.2491
217.7	-47.3802
217.8	-47.5118
217.9	-47.6439
218	-47.7766
218.1	-47.9098
218.2	-48.0436
218.3	-48.1779
218.4	-48.3127
218.5	-48.4481
218.6	-48.5841
218.7	-48.7206
218.8	-48.8577
218.9	-48.9953
219	-49.1335
219.1	-49.2723
219.2	-49.4117
219.3	-49.5517
219.4	-49.6922
219.5	-49.8334
219.6	-49.9751
219.7	-50.1175
219.8	-50.2604
219.9	-50.404
220	-50.5481
220.1	-50.6929
220.2	-50.8383
220.3	-50.9844
220.4	-51.1311
220.5	-51.2784
220.6	-51.4263
220.7	-51.5749
220.8	-51.7242
220.9	-51.874
221	-52.0246
221.1	-52.1758
221.2	-52.3277
221.3	-52.4802
221.4	-52.6335
221.5	-52.7874
221.6	-52.9419
221.7	-53.0972
221.8	-53.2531
221.9	-53.4098
222	-53.5671
222.1	-53.7252
222.2	-53.8839
222.3	-54.0434
222.4	-54.2036
222.5	-54.3644
222.6	-54.526
222.7	-54.6884
222.8	-54.8514
222.9	-55.0152
223	-55.1797
223.1	-55.3449
223.2	-55.5109
223.3	-55.6776
223.4	-55.8451
223.5	-56.0133
223.6	-56.1822
223.7	-56.3519
223.8	-56.5223
223.9	-56.6935
224	-56.8654
224.1	-57.0381
224.2	-57.2116
224.3	-57.3857
224.4	-57.5607
224.5	-57.7364
224.6	-57.9128
224.7	-58.09
224.8	-58.2679
224.9	-58.4466
225	-58.626
225.1	-58.8062
225.2	-58.9871
225.3	-59.1687
225.4	-59.3511
225.5	-59.5342
225.6	-59.718
225.7	-59.9026
225.8	-60.0878
225.9	-60.2738
226	-60.4605
226.1	-60.6478
226.2	-60.8359
226.3	-61.0246
226.4	-61.214
226.5	-61.4041
226.6	-61.5948
226.7	-61.7862
226.8	-61.9782
226.9	-62.1708
227	-62.364
227.1	-62.5578
227.2	-62.7522
227.3	-62.9472
227.4	-63.1427
227.5	-63.3388
227.6	-63.5354
227.7	-63.7324
227.8	-63.93
227.9	-64.128
228	-64.3265
228.1	-64.5254
228.2	-64.7247
228.3	-64.9244
228.4	-65.1245
228.5	-65.3248
228.6	-65.5255
228.7	-65.7265
228.8	-65.9277
228.9	-66.1292
229	-66.3308
229.1	-66.5327
229.2	-66.7346
229.3	-66.9367
229.4	-67.1389
229.5	-67.3411
229.6	-67.5433
229.7	-67.7455
229.8	-67.9476
229.9	-68.1496
230	-68.3515
230.1	-68.5533
230.2	-68.7548
230.3	-68.9561
230.4	-69.1571
230.5	-69.3578
230.6	-69.5581
230.7	-69.758
230.8	-69.9575
230.9	-70.1565
231	-70.3549
231.1	-70.5528
231.2	-70.75
231.3	-70.9466
231.4	-71.1425
231.5	-71.3376
231.6	-71.532
231.7	-71.7255
231.8	-71.9182
231.9	-72.1099
232	-72.3006
232.1	-72.4904
232.2	-72.6791
232.3	-72.8667
232.4	-73.0532
232.5	-73.2385
232.6	-73.4226
232.7	-73.6054
232.8	-73.787
232.9	-73.9672
233	-74.146
233.1	-74.3234
233.2	-74.4994
233.3	-74.6739
233.4	-74.8469
233.5	-75.0184
233.6	-75.1883
233.7	-75.3565
233.8	-75.5232
233.9	-75.6881
234	-75.8514
234.1	-76.013
234.2	-76.1728
234.3	-76.3308
234.4	-76.4871
234.5	-76.6415
234.6	-76.7941
234.7	-76.9449
234.8	-77.0938
234.9	-77.2409
235	-77.386
235.1	-77.5293
235.2	-77.6706
235.3	-77.81
235.4	-77.9475
235.5	-78.083
235.6	-78.2167
235.7	-78.3483
235.8	-78.478
235.9	-78.6058
236	-78.7316
236.1	-78.8555
236.2	-78.9774
236.3	-79.0974
236.4	-79.2155
236.5	-79.3316
236.6	-79.4458
236.7	-79.5581
236.8	-79.6684
236.9	-79.7769
237	-79.8835
237.1	-79.9883
237.2	-80.0911
237.3	-80.1922
237.4	-80.2914
237.5	-80.3888
237.6	-80.4843
237.7	-80.5781
237.8	-80.6702
237.9	-80.7605
238	-80.849
238.1	-80.9358
238.2	-81.021
238.3	-81.1045
238.4	-81.1863
238.5	-81.2665
238.6	-81.3451
238.7	-81.4221
238.8	-81.4975
238.9	-81.5713
239	-81.6437
239.1	-81.7145
239.2	-81.7839
239.3	-81.8518
239.4	-81.9182
239.5	-81.9833
239.6	-82.0469
239.7	-82.1092
239.8	-82.1702
239.9	-82.2298
240	-82.2881
240.1	-82.3451
240.2	-82.4008
240.3	-82.4554
240.4	-82.5087
240.5	-82.5608
240.6	-82.6117
240.7	-82.6615
240.8	-82.7102
240.9	-82.7578
241	-82.8043
241.1	-82.8497
241.2	-82.894
241.3	-82.9374
241.4	-82.9797
241.5	-83.0211
241.6	-83.0615
241.7	-83.1009
241.8	-83.1395
241.9	-83.1771
242	-83.2138
242.1	-83.2497
242.2	-83.2847
242.3	-83.3189
242.4	-83.3523
242.5	-83.3849
242.6	-83.4167
242.7	-83.4477
242.8	-83.478
242.9	-83.5076
243	-83.5365
243.1	-83.5646
243.2	-83.5921
243.3	-83.6189
243.4	-83.6451
243.5	-83.6706
243.6	-83.6955
243.7	-83.7198
243.8	-83.7435
243.9	-83.7667
244	-83.7892
244.1	-83.8113
244.2	-83.8327
244.3	-83.8537
244.4	-83.8741
244.5	-83.894
244.6	-83.9135
244.7	-83.9324
244.8	-83.9509
244.9	-83.969
245	-83.9866
245.1	-84.0037
245.2	-84.0205
245.3	-84.0368
245.4	-84.0527
245.5	-84.0683
245.6	-84.0834
245.7	-84.0982
245.8	-84.1126
245.9	-84.1267
246	-84.1404
246.1	-84.1537
246.2	-84.1668
246.3	-84.1795
246.4	-84.1919
246.5	-84.204
246.6	-84.2158
246.7	-84.2273
246.8	-84.2385
246.9	-84.2495
247	-84.2601
247.1	-84.2705
247.2	-84.2807
247.3	-84.2906
247.4	-84.3003
247.5	-84.3097
247.6	-84.3189
247.7	-84.3279
247.8	-84.3367
247.9	-84.3452
248	-84.3535
248.1	-84.3617
248.2	-84.3696
248.3	-84.3773
248.4	-84.3849
248.5	-84.3923
248.6	-84.3995
248.7	-84.4065
248.8	-84.4133
248.9	-84.42
249	-84.4265
249.1	-84.4329
249.2	-84.4391
249.3	-84.4452
249.4	-84.4511
249.5	-84.4569
249.6	-84.4626
249.7	-84.4681
249.8	-84.4735
249.9	-84.4787
250	-84.4839
250.1	-84.4889
250.2	-84.4938
250.3	-84.4986
250.4	-84.5033
250.5	-84.5078
250.6	-84.5123
250.7	-84.5166
250.8	-84.5209
250.9	-84.5251
251	-84.5291
251.1	-84.5331
251.2	-84.537
251.3	-84.5408
251.4	-84.5445
251.5	-84.5482
251.6	-84.5517
251.7	-84.5552
251.8	-84.5586
251.9	-84.5619
252	-84.5652
252.1	-84.5684
252.2	-84.5715
252.3	-84.5745
252.4	-84.5775
252.5	-84.5804
252.6	-84.5833
252.7	-84.5861
252.8	-84.5888
252.9	-84.5915
253	-84.5941
253.1	-84.5967
253.2	-84.5992
253.3	-84.6017
253.4	-84.6041
253.5	-84.6065
253.6	-84.6088
253.7	-84.6111
253.8	-84.6133
253.9	-84.6155
254	-84.6177
254.1	-84.6198
254.2	-84.6218
254.3	-84.6239
254.4	-84.6259
254.5	-84.6278
254.6	-84.6297
254.7	-84.6316
254.8	-84.6335
254.9	-84.6353
255	-84.6371
255.1	-84.6388
255.2	-84.6405
255.3	-84.6422
255.4	-84.6439
255.5	-84.6455
255.6	-84.6471
255.7	-84.6487
255.8	-84.6503
255.9	-84.6518
256	-84.6533
256.1	-84.6548
256.2	-84.6562
256.3	-84.6577
256.4	-84.6591
256.5	-84.6605
256.6	-84.6618
256.7	-84.6632
256.8	-84.6645
256.9	-84.6658
257	-84.6671
257.1	-84.6684
257.2	-84.6696
257.3	-84.6708
257.4	-84.6721
257.5	-84.6733
257.6	-84.6744
257.7	-84.6756
257.8	-84.6768
257.9	-84.6779
258	-84.679
258.1	-84.6801
258.2	-84.6812
258.3	-84.6823
258.4	-84.6834
258.5	-84.6844
258.6	-84.6855
258.7	-84.6865
258.8	-84.6875
258.9	-84.6885
259	-84.6895
259.1	-84.6905
259.2	-84.6915
259.3	-84.6924
259.4	-84.6934
259.5	-84.6943
259.6	-84.6953
259.7	-84.6962
259.8	-84.6971
259.9	-84.698
260	-84.6989
260.1	-84.6998
260.2	-84.7007
260.3	-84.7016
260.4	-84.7024
260.5	-84.7033
260.6	-84.7041
260.7	-84.705
260.8	-84.7058
260.9	-84.7066
261	-84.7075
261.1	-84.7083
261.2	-84.7091
261.3	-84.7099
261.4	-84.7107
261.5	-84.7115
261.6	-84.7123
261.7	-84.7131
261.8	-84.7138
261.9	-84.7146
262	-84.7154
262.1	-84.7161
262.2	-84.7169
262.3	-84.7176
262.4	-84.7184
262.5	-84.7191
262.6	-84.7198
262.7	-84.7206
262.8	-84.7213
262.9	-84.722
263	-84.7227
263.1	-84.7235
263.2	-84.7242
263.3	-84.7249
263.4	-84.7256
263.5	-84.7263
263.6	-84.727
263.7	-84.7277
263.8	-84.7284
263.9	-84.729
264	-84.7297
264.1	-84.7304
264.2	-84.7311
264.3	-84.7318
264.4	-84.7324
264.5	-84.7331
264.6	-84.7338
264.7	-84.7344
264.8	-84.7351
264.9	-84.7357
265	-84.7364
265.1	-84.737
265.2	-84.7377
265.3	-84.7383
265.4	-84.739
265.5	-84.7396
265.6	-84.7403
265.7	-84.7409
265.8	-84.7415
265.9	-84.7422
266	-84.7428
266.1	-84.7434
266.2	-84.7441
266.3	-84.7447
266.4	-84.7453
266.5	-84.7459
266.6	-84.7466
266.7	-84.7472
266.8	-84.7478
266.9	-84.7484
267	-84.749
267.1	-84.7496
267.2	-84.7502
267.3	-84.7509
267.4	-84.7515
267.5	-84.7521
267.6	-84.7527
267.7	-84.7533
267.8	-84.7539
267.9	-84.7545
268	-84.7551
268.1	-84.7557
268.2	-84.7563
268.3	-84.7569
268.4	-84.7575
268.5	-84.758
268.6	-84.7586
268.7	-84.7592
268.8	-84.7598
268.9	-84.7604
269	-84.761
269.1	-84.7616
269.2	-84.7622
269.3	-84.7627
269.4	-84.7633
269.5	-84.7639
269.6	-84.7645
269.7	-84.7651
269.8	-84.7656
269.9	-84.7662
270	-84.7668
270.1	-84.7674
270.2	-84.7679
270.3	-84.7685
270.4	-84.7691
270.5	-84.7697
270.6	-84.7702
270.7	-84.7708
270.8	-84.7714
270.9	-84.7719
271	-84.7725
271.1	-84.7731
271.2	-84.7736
271.3	-84.7742
271.4	-84.7748
271.5	-84.7753
271.6	-84.7759
271.7	-84.7764
271.8	-84.777
271.9	-84.7776
272	-84.7781
272.1	-84.7787
272.2	-84.7792
272.3	-84.7798
272.4	-84.7803
272.5	-84.7809
272.6	-84.7815
272.7	-84.782
272.8	-84.7826
272.9	-84.7831
273	-84.7837
273.1	-84.7842
273.2	-84.7848
273.3	-84.7853
273.4	-84.7859
273.5	-84.7864
273.6	-84.787
273.7	-84.7875
273.8	-84.7881
273.9	-84.7886
274	-84.7891
274.1	-84.7897
274.2	-84.7902
274.3	-84.7908
274.4	-84.7913
274.5	-84.7919
274.6	-84.7924
274.7	-84.7929
274.8	-84.7935
274.9	-84.794
275	-84.7946
275.1	-84.7951
275.2	-84.7956
275.3	-84.7962
275.4	-84.7967
275.5	-84.7973
275.6	-84.7978
275.7	-84.7983
275.8	-84.7989
275.9	-84.7994
276	-84.7999
276.1	-84.8005
276.2	-84.801
276.3	-84.8015
276.4	-84.8021
276.5	-84.8026
276.6	-84.8031
276.7	-84.8037
276.8	-84.8042
276.9	-84.8047
277	-84.8053
277.1	-84.8058
277.2	-84.8063
277.3	-84.8068
277.4	-84.8074
277.5	-84.8079
277.6	-84.8084
277.7	-84.809
277.8	-84.8095
277.9	-84.81
278	-84.8105
278.1	-84.8111
278.2	-84.8116
278.3	-84.8121
278.4	-84.8126
278.5	-84.8131
278.6	-84.8137
278.7	-84.8142
278.8	-84.8147
278.9	-84.8152
279	-84.8158
279.1	-84.8163
279.2	-84.8168
279.3	-84.8173
279.4	-84.8178
279.5	-84.8184
279.6	-84.8189
279.7	-84.8194
279.8	-84.8199
279.9	-84.8204
280	-84.8209
280.1	-84.8215
280.2	-84.822
280.3	-84.8225
280.4	-84.823
280.5	-84.8235
280.6	-84.824
280.7	-84.8245
280.8	-84.8251
280.9	-84.8256
281	-84.8261
281.1	-84.8266
281.2	-84.8271
281.3	-84.8276
281.4	-84.8281
281.5	-84.8286
281.6	-84.8291
281.7	-84.8297
281.8	-84.8302
281.9	-84.8307
282	-84.8312
282.1	-84.8317
282.2	-84.8322
282.3	-84.8327
282.4	-84.8332
282.5	-84.8337
282.6	-84.8342
282.7	-84.8347
282.8	-84.8352
282.9	-84.8357
283	-84.8362
283.1	-84.8367
283.2	-84.8373
283.3	-84.8378
283.4	-84.8383
283.5	-84.8388
283.6	-84.8393
283.7	-84.8398
283.8	-84.8403
283.9	-84.8408
284	-84.8413
284.1	-84.8418
284.2	-84.8423
284.3	-84.8428
284.4	-84.8433
284.5	-84.8438
284.6	-84.8443
284.7	-84.8448
284.8	-84.8453
284.9	-84.8458
285	-84.8463
285.1	-84.8468
285.2	-84.8473
285.3	-84.8477
285.4	-84.8482
285.5	-84.8487
285.6	-84.8492
285.7	-84.8497
285.8	-84.8502
285.9	-84.8507
286	-84.8512
286.1	-84.8517
286.2	-84.8522
286.3	-84.8527
286.4	-84.8532
286.5	-84.8537
286.6	-84.8542
286.7	-84.8547
286.8	-84.8551
286.9	-84.8556
287	-84.8561
287.1	-84.8566
287.2	-84.8571
287.3	-84.8576
287.4	-84.8581
287.5	-84.8586
287.6	-84.8591
287.7	-84.8595
287.8	-84.86
287.9	-84.8605
288	-84.861
288.1	-84.8615
288.2	-84.862
288.3	-84.8625
288.4	-84.863
288.5	-84.8634
288.6	-84.8639
288.7	-84.8644
288.8	-84.8649
288.9	-84.8654
289	-84.8659
289.1	-84.8663
289.2	-84.8668
289.3	-84.8673
289.4	-84.8678
289.5	-84.8683
289.6	-84.8687
289.7	-84.8692
289.8	-84.8697
289.9	-84.8702
290	-84.8707
290.1	-84.8711
290.2	-84.8716
290.3	-84.8721
290.4	-84.8726
290.5	-84.8731
290.6	-84.8735
290.7	-84.874
290.8	-84.8745
290.9	-84.875
291	-84.8755
291.1	-84.8759
291.2	-84.8764
291.3	-84.8769
291.4	-84.8774
291.5	-84.8778
291.6	-84.8783
291.7	-84.8788
291.8	-84.8793
291.9	-84.8797
292	-84.8802
292.1	-84.8807
292.2	-84.8811
292.3	-84.8816
292.4	-84.8821
292.5	-84.8826
292.6	-84.883
292.7	-84.8835
292.8	-84.884
292.9	-84.8844
293	-84.8849
293.1	-84.8854
293.2	-84.8859
293.3	-84.8863
293.4	-84.8868
293.5	-84.8873
293.6	-84.8877
293.7	-84.8882
293.8	-84.8887
293.9	-84.8891
294	-84.8896
294.1	-84.8901
294.2	-84.8905
294.3	-84.891
294.4	-84.8915
294.5	-84.8919
294.6	-84.8924
294.7	-84.8929
294.8	-84.8933
294.9	-84.8938
295	-84.8942
295.1	-84.8947
295.2	-84.8952
295.3	-84.8956
295.4	-84.8961
295.5	-84.8966
295.6	-84.897
295.7	-84.8975
295.8	-84.8979
295.9	-84.8984
296	-84.8989
296.1	-84.8993
296.2	-84.8998
296.3	-84.9003
296.4	-84.9007
296.5	-84.9012
296.6	-84.9016
296.7	-84.9021
296.8	-84.9025
296.9	-84.903
297	-84.9035
297.1	-84.9039
297.2	-84.9044
297.3	-84.9048
297.4	-84.9053
297.5	-84.9057
297.6	-84.9062
297.7	-84.9067
297.8	-84.9071
297.9	-84.9076
298	-84.908
298.1	-84.9085
298.2	-84.9089
298.3	-84.9094
298.4	-84.9098
298.5	-84.9103
298.6	-84.9107
298.7	-84.9112
298.8	-84.9116
298.9	-84.9121
299	-84.9126
299.1	-84.913
299.2	-84.9135
299.3	-84.9139
299.4	-84.9144
299.5	-84.9148
299.6	-84.9153
299.7	-84.9157
299.8	-84.9162
299.9	-84.9166
300	-84.9171
300.1	-84.9175
300.2	-84.918
300.3	-84.9184
300.4	-84.9188
300.5	-84.9193
300.6	-84.9197
300.7	-84.9202
300.8	-84.9206
300.9	-84.9211
301	-84.9215
301.1	-84.922
301.2	-84.9224
301.3	-84.9229
301.4	-84.9233
301.5	-84.9238
301.6	-84.9242
301.7	-84.9246
301.8	-84.9251
301.9	-84.9255
302	-84.926
302.1	-84.9264
302.2	-84.9269
302.3	-84.9273
302.4	-84.9277
302.5	-84.9282
302.6	-84.9286
302.7	-84.9291
302.8	-84.9295
302.9	-84.9299
303	-84.9304
303.1	-84.9308
303.2	-84.9313
303.3	-84.9317
303.4	-84.9321
303.5	-84.9326
303.6	-84.933
303.7	-84.9335
303.8	-84.9339
303.9	-84.9343
304	-84.9348
304.1	-84.9352
304.2	-84.9356
304.3	-84.9361
304.4	-84.9365
304.5	-84.937
304.6	-84.9374
304.7	-84.9378
304.8	-84.9383
304.9	-84.9387
305	-84.9391
305.1	-84.9396
305.2	-84.94
305.3	-84.9404
305.4	-84.9409
305.5	-84.9413
305.6	-84.9417
305.7	-84.9422
305.8	-84.9426
305.9	-84.943
306	-84.9435
306.1	-84.9439
306.2	-84.9443
306.3	-84.9448
306.4	-84.9452
306.5	-84.9456
306.6	-84.946
306.7	-84.9465
306.8	-84.9469
306.9	-84.9473
307	-84.9478
307.1	-84.9482
307.2	-84.9486
307.3	-84.949
307.4	-84.9495
307.5	-84.9499
307.6	-84.9503
307.7	-84.9508
307.8	-84.9512
307.9	-84.9516
308	-84.952
308.1	-84.9525
308.2	-84.9529
308.3	-84.9533
308.4	-84.9537
308.5	-84.9542
308.6	-84.9546
308.7	-84.955
308.8	-84.9554
308.9	-84.9559
309	-84.9563
309.1	-84.9567
309.2	-84.9571
309.3	-84.9576
309.4	-84.958
309.5	-84.9584
309.6	-84.9588
309.7	-84.9592
309.8	-84.9597
309.9	-84.9601
310	-84.9605
310.1	-84.9609
310.2	-84.9614
310.3	-84.9618
310.4	-84.9622
310.5	-84.9626
310.6	-84.963
310.7	-84.9635
310.8	-84.9639
310.9	-84.9643
311	-84.9647
311.1	-84.9651
311.2	-84.9655
311.3	-84.966
311.4	-84.9664
311.5	-84.9668
311.6	-84.9672
311.7	-84.9676
311.8	-84.968
311.9	-84.9685
312	-84.9689
312.1	-84.9693
312.2	-84.9697
312.3	-84.9701
312.4	-84.9705
312.5	-84.971
312.6	-84.9714
312.7	-84.9718
312.8	-84.9722
312.9	-84.9726
313	-84.973
313.1	-84.9734
313.2	-84.9739
313.3	-84.9743
313.4	-84.9747
313.5	-84.9751
313.6	-84.9755
313.7	-84.9759
313.8	-84.9763
313.9	-84.9767
314	-84.9771
314.1	-84.9776
314.2	-84.978
314.3	-84.9784
314.4	-84.9788
314.5	-84.9792
314.6	-84.9796
314.7	-84.98
314.8	-84.9804
314.9	-84.9808
315	-84.9812
315.1	-84.9816
315.2	-84.9821
315.3	-84.9825
315.4	-84.9829
315.5	-84.9833
315.6	-84.9837
315.7	-84.9841
315.8	-84.9845
315.9	-84.9849
316	-84.9853
316.1	-84.9857
316.2	-84.9861
316.3	-84.9865
316.4	-84.9869
316.5	-84.9873
316.6	-84.9877
316.7	-84.9881
316.8	-84.9885
316.9	-84.989
317	-84.9894
317.1	-84.9898
317.2	-84.9902
317.3	-84.9906
317.4	-84.991
317.5	-84.9914
317.6	-84.9918
317.7	-84.9922
317.8	-84.9926
317.9	-84.993
318	-84.9934
318.1	-84.9938
318.2	-84.9942
318.3	-84.9946
318.4	-84.995
318.5	-84.9954
318.6	-84.9958
318.7	-84.9962
318.8	-84.9966
318.9	-84.997
319	-84.9974
319.1	-84.9978
319.2	-84.9982
319.3	-84.9986
319.4	-84.999
319.5	-84.9994
319.6	-84.9998
319.7	-85.0002
319.8	-85.0006
319.9	-85.0009
320	-85.0013
320.1	-85.0017
320.2	-85.0021
320.3	-85.0025
320.4	-85.0029
320.5	-85.0033
320.6	-85.0037
320.7	-85.0041
320.8	-85.0045
320.9	-85.0049
321	-85.0053
321.1	-85.0057
321.2	-85.0061
321.3	-85.0065
321.4	-85.0069
321.5	-85.0073
321.6	-85.0077
321.7	-85.008
321.8	-85.0084
321.9	-85.0088
322	-85.0092
322.1	-85.0096
322.2	-85.01
322.3	-85.0104
322.4	-85.0108
322.5	-85.0112
322.6	-85.0116
322.7	-85.012
322.8	-85.0123
322.9	-85.0127
323	-85.0131
323.1	-85.0135
323.2	-85.0139
323.3	-85.0143
323.4	-85.0147
323.5	-85.0151
323.6	-85.0155
323.7	-85.0158
323.8	-85.0162
323.9	-85.0166
324	-85.017
324.1	-85.0174
324.2	-85.0178
324.3	-85.0182
324.4	-85.0185
324.5	-85.0189
324.6	-85.0193
324.7	-85.0197
324.8	-85.0201
324.9	-85.0205
325	-85.0209
325.1	-85.0212
325.2	-85.0216
325.3	-85.022
325.4	-85.0224
325.5	-85.0228
325.6	-85.0232
325.7	-85.0235
325.8	-85.0239
325.9	-85.0243
326	-85.0247
326.1	-85.0251
326.2	-85.0255
326.3	-85.0258
326.4	-85.0262
326.5	-85.0266
326.6	-85.027
326.7	-85.0274
326.8	-85.0277
326.9	-85.0281
327	-85.0285
327.1	-85.0289
327.2	-85.0293
327.3	-85.0296
327.4	-85.03
327.5	-85.0304
327.6	-85.0308
327.7	-85.0312
327.8	-85.0315
327.9	-85.0319
328	-85.0323
328.1	-85.0327
328.2	-85.033
328.3	-85.0334
328.4	-85.0338
328.5	-85.0342
328.6	-85.0345
328.7	-85.0349
328.8	-85.0353
328.9	-85.0357
329	-85.0361
329.1	-85.0364
329.2	-85.0368
329.3	-85.0372
329.4	-85.0376
329.5	-85.0379
329.6	-85.0383
329.7	-85.0387
329.8	-85.039
329.9	-85.0394
330	-85.0398
330.1	-85.0402
330.2	-85.0405
330.3	-85.0409
330.4	-85.0413
330.5	-85.0417
330.6	-85.042
330.7	-85.0424
330.8	-85.0428
330.9	-85.0431
331	-85.0435
331.1	-85.0439
331.2	-85.0443
331.3	-85.0446
331.4	-85.045
331.5	-85.0454
331.6	-85.0457
331.7	-85.0461
331.8	-85.0465
331.9	-85.0468
332	-85.0472
332.1	-85.0476
332.2	-85.048
332.3	-85.0483
332.4	-85.0487
332.5	-85.0491
332.6	-85.0494
332.7	-85.0498
332.8	-85.0502
332.9	-85.0505
333	-85.0509
333.1	-85.0513
333.2	-85.0516
333.3	-85.052
333.4	-85.0524
333.5	-85.0527
333.6	-85.0531
333.7	-85.0535
333.8	-85.0538
333.9	-85.0542
334	-85.0546
334.1	-85.0549
334.2	-85.0553
334.3	-85.0556
334.4	-85.056
334.5	-85.0564
334.6	-85.0567
334.7	-85.0571
334.8	-85.0575
334.9	-85.0578
335	-85.0582
335.1	-85.0585
335.2	-85.0589
335.3	-85.0593
335.4	-85.0596
335.5	-85.06
335.6	-85.0604
335.7	-85.0607
335.8	-85.0611
335.9	-85.0614
336	-85.0618
336.1	-85.0622
336.2	-85.0625
336.3	-85.0629
336.4	-85.0632
336.5	-85.0636
336.6	-85.064
336.7	-85.0643
336.8	-85.0647
336.9	-85.065
337	-85.0654
337.1	-85.0658
337.2	-85.0661
337.3	-85.0665
337.4	-85.0668
337.5	-85.0672
337.6	-85.0675
337.7	-85.0679
337.8	-85.0683
337.9	-85.0686
338	-85.069
338.1	-85.0693
338.2	-85.0697
338.3	-85.07
338.4	-85.0704
338.5	-85.0707
338.6	-85.0711
338.7	-85.0715
338.8	-85.0718
338.9	-85.0722
339	-85.0725
339.1	-85.0729
339.2	-85.0732
339.3	-85.0736
339.4	-85.0739
339.5	-85.0743
339.6	-85.0746
339.7	-85.075
339.8	-85.0754
339.9	-85.0757
340	-85.0761
340.1	-85.0764
340.2	-85.0768
340.3	-85.0771
340.4	-85.0775
340.5	-85.0778
340.6	-85.0782
340.7	-85.0785
340.8	-85.0789
340.9	-85.0792
341	-85.0796
341.1	-85.0799
341.2	-85.0803
341.3	-85.0806
341.4	-85.081
341.5	-85.0813
341.6	-85.0817
341.7	-85.082
341.8	-85.0824
341.9	-85.0827
342	-85.0831
342.1	-85.0834
342.2	-85.0838
342.3	-85.0841
342.4	-85.0845
342.5	-85.0848
342.6	-85.0851
342.7	-85.0855
342.8	-85.0858
342.9	-85.0862
343	-85.0865
343.1	-85.0869
343.2	-85.0872
343.3	-85.0876
343.4	-85.0879
343.5	-85.0883
343.6	-85.0886
343.7	-85.089
343.8	-85.0893
343.9	-85.0896
344	-85.09
344.1	-85.0903
344.2	-85.0907
344.3	-85.091
344.4	-85.0914
344.5	-85.0917
344.6	-85.092
344.7	-85.0924
344.8	-85.0927
344.9	-85.0931
345	-85.0934
345.1	-85.0938
345.2	-85.0941
345.3	-85.0944
345.4	-85.0948
345.5	-85.0951
345.6	-85.0955
345.7	-85.0958
345.8	-85.0962
345.9	-85.0965
346	-85.0968
346.1	-85.0972
346.2	-85.0975
346.3	-85.0979
346.4	-85.0982
346.5	-85.0985
346.6	-85.0989
346.7	-85.0992
346.8	-85.0996
346.9	-85.0999
347	-85.1002
347.1	-85.1006
347.2	-85.1009
347.3	-85.1012
347.4	-85.1016
347.5	-85.1019
347.6	-85.1023
347.7	-85.1026
347.8	-85.1029
347.9	-85.1033
348	-85.1036
348.1	-85.1039
348.2	-85.1043
348.3	-85.1046
348.4	-85.1049
348.5	-85.1053
348.6	-85.1056
348.7	-85.106
348.8	-85.1063
348.9	-85.1066
349	-85.107
349.1	-85.1073
349.2	-85.1076
349.3	-85.108
349.4	-85.1083
349.5	-85.1086
349.6	-85.109
349.7	-85.1093
349.8	-85.1096
349.9	-85.11
350	-85.1103
350.1	-85.1106
350.2	-85.111
350.3	-85.1113
350.4	-85.1116
350.5	-85.112
350.6	-85.1123
350.7	-85.1126
350.8	-85.113
350.9	-85.1133
351	-85.1136
351.1	-85.1139
351.2	-85.1143
351.3	-85.1146
351.4	-85.1149
351.5	-85.1153
351.6	-85.1156
351.7	-85.1159
351.8	-85.1163
351.9	-85.1166
352	-85.1169
352.1	-85.1172
352.2	-85.1176
352.3	-85.1179
352.4	-85.1182
352.5	-85.1186
352.6	-85.1189
352.7	-85.1192
352.8	-85.1195
352.9	-85.1199
353	-85.1202
353.1	-85.1205
353.2	-85.1209
353.3	-85.1212
353.4	-85.1215
353.5	-85.1218
353.6	-85.1222
353.7	-85.1225
353.8	-85.1228
353.9	-85.1231
354	-85.1235
354.1	-85.1238
354.2	-85.1241
354.3	-85.1244
354.4	-85.1248
354.5	-85.1251
354.6	-85.1254
354.7	-85.1257
354.8	-85.1261
354.9	-85.1264
355	-85.1267
355.1	-85.127
355.2	-85.1274
355.3	-85.1277
355.4	-85.128
355.5	-85.1283
355.6	-85.1286
355.7	-85.129
355.8	-85.1293
355.9	-85.1296
356	-85.1299
356.1	-85.1303
356.2	-85.1306
356.3	-85.1309
356.4	-85.1312
356.5	-85.1315
356.6	-85.1319
356.7	-85.1322
356.8	-85.1325
356.9	-85.1328
357	-85.1331
357.1	-85.1335
357.2	-85.1338
357.3	-85.1341
357.4	-85.1344
357.5	-85.1347
357.6	-85.1351
357.7	-85.1354
357.8	-85.1357
357.9	-85.136
358	-85.1363
358.1	-85.1367
358.2	-85.137
358.3	-85.1373
358.4	-85.1376
358.5	-85.1379
358.6	-85.1382
358.7	-85.1386
358.8	-85.1389
358.9	-85.1392
359	-85.1395
359.1	-85.1398
359.2	-85.1401
359.3	-85.1405
359.4	-85.1408
359.5	-85.1411
359.6	-85.1414
359.7	-85.1417
359.8	-85.142
359.9	-85.1424
360	-85.1427
360.1	-85.143
360.2	-85.1433
360.3	-85.1436
360.4	-85.1439
360.5	-85.1442
360.6	-85.1446
360.7	-85.1449
360.8	-85.1452
360.9	-85.1455
361	-85.1458
361.1	-85.1461
361.2	-85.1464
361.3	-85.1467
361.4	-85.1471
361.5	-85.1474
361.6	-85.1477
361.7	-85.148
361.8	-85.1483
361.9	-85.1486
362	-85.1489
362.1	-85.1492
362.2	-85.1495
362.3	-85.1499
362.4	-85.1502
362.5	-85.1505
362.6	-85.1508
362.7	-85.1511
362.8	-85.1514
362.9	-85.1517
363	-85.152
363.1	-85.1523
363.2	-85.1526
363.3	-85.153
363.4	-85.1533
363.5	-85.1536
363.6	-85.1539
363.7	-85.1542
363.8	-85.1545
363.9	-85.1548
364	-85.1551
364.1	-85.1554
364.2	-85.1557
364.3	-85.156
364.4	-85.1563
364.5	-85.1567
364.6	-85.157
364.7	-85.1573
364.8	-85.1576
364.9	-85.1579
365	-85.1582
365.1	-85.1585
365.2	-85.1588
365.3	-85.1591
365.4	-85.1594
365.5	-85.1597
365.6	-85.16
365.7	-85.1603
365.8	-85.1606
365.9	-85.1609
366	-85.1612
366.1	-85.1615
366.2	-85.1619
366.3	-85.1622
366.4	-85.1625
366.5	-85.1628
366.6	-85.1631
366.7	-85.1634
366.8	-85.1637
366.9	-85.164
367	-85.1643
367.1	-85.1646
367.2	-85.1649
367.3	-85.1652
367.4	-85.1655
367.5	-85.1658
367.6	-85.1661
367.7	-85.1664
367.8	-85.1667
367.9	-85.167
368	-85.1673
368.1	-85.1676
368.2	-85.1679
368.3	-85.1682
368.4	-85.1685
368.5	-85.1688
368.6	-85.1691
368.7	-85.1694
368.8	-85.1697
368.9	-85.17
369	-85.1703
369.1	-85.1706
369.2	-85.1709
369.3	-85.1712
369.4	-85.1715
369.5	-85.1718
369.6	-85.1721
369.7	-85.1724
369.8	-85.1727
369.9	-85.173
370	-85.1733
370.1	-85.1736
370.2	-85.1739
370.3	-85.1742
370.4	-85.1745
370.5	-85.1748
370.6	-85.1751
370.7	-85.1754
370.8	-85.1757
370.9	-85.176
371	-85.1763
371.1	-85.1766
371.2	-85.1769
371.3	-85.1771
371.4	-85.1774
371.5	-85.1777
371.6	-85.178
371.7	-85.1783
371.8	-85.1786
371.9	-85.1789
372	-85.1792
372.1	-85.1795
372.2	-85.1798
372.3	-85.1801
372.4	-85.1804
372.5	-85.1807
372.6	-85.181
372.7	-85.1813
372.8	-85.1816
372.9	-85.1819
373	-85.1822
373.1	-85.1824
373.2	-85.1827
373.3	-85.183
373.4	-85.1833
373.5	-85.1836
373.6	-85.1839
373.7	-85.1842
373.8	-85.1845
373.9	-85.1848
374	-85.1851
374.1	-85.1854
374.2	-85.1857
374.3	-85.1859
374.4	-85.1862
374.5	-85.1865
374.6	-85.1868
374.7	-85.1871
374.8	-85.1874
374.9	-85.1877
375	-85.188
375.1	-85.1883
375.2	-85.1886
375.3	-85.1889
375.4	-85.1891
375.5	-85.1894
375.6	-85.1897
375.7	-85.19
375.8	-85.1903
375.9	-85.1906
376	-85.1909
376.1	-85.1912
376.2	-85.1914
376.3	-85.1917
376.4	-85.192
376.5	-85.1923
376.6	-85.1926
376.7	-85.1929
376.8	-85.1932
376.9	-85.1935
377	-85.1937
377.1	-85.194
377.2	-85.1943
377.3	-85.1946
377.4	-85.1949
377.5	-85.1952
377.6	-85.1955
377.7	-85.1958
377.8	-85.196
377.9	-85.1963
378	-85.1966
378.1	-85.1969
378.2	-85.1972
378.3	-85.1975
378.4	-85.1977
378.5	-85.198
378.6	-85.1983
378.7	-85.1986
378.8	-85.1989
378.9	-85.1992
379	-85.1995
379.1	-85.1997
379.2	-85.2
379.3	-85.2003
379.4	-85.2006
379.5	-85.2009
379.6	-85.2012
379.7	-85.2014
379.8	-85.2017
379.9	-85.202
380	-85.2023
380.1	-85.2026
380.2	-85.2028
380.3	-85.2031
380.4	-85.2034
380.5	-85.2037
380.6	-85.204
380.7	-85.2043
380.8	-85.2045
380.9	-85.2048
381	-85.2051
381.1	-85.2054
381.2	-85.2057
381.3	-85.2059
381.4	-85.2062
381.5	-85.2065
381.6	-85.2068
381.7	-85.2071
381.8	-85.2073
381.9	-85.2076
382	-85.2079
382.1	-85.2082
382.2	-85.2084
382.3	-85.2087
382.4	-85.209
382.5	-85.2093
382.6	-85.2096
382.7	-85.2098
382.8	-85.2101
382.9	-85.2104
383	-85.2107
383.1	-85.211
383.2	-85.2112
383.3	-85.2115
383.4	-85.2118
383.5	-85.2121
383.6	-85.2123
383.7	-85.2126
383.8	-85.2129
383.9	-85.2132
384	-85.2134
384.1	-85.2137
384.2	-85.214
384.3	-85.2143
384.4	-85.2145
384.5	-85.2148
384.6	-85.2151
384.7	-85.2154
384.8	-85.2156
384.9	-85.2159
385	-85.2162
385.1	-85.2165
385.2	-85.2167
385.3	-85.217
385.4	-85.2173
385.5	-85.2176
385.6	-85.2178
385.7	-85.2181
385.8	-85.2184
385.9	-85.2187
386	-85.2189
386.1	-85.2192
386.2	-85.2195
386.3	-85.2198
386.4	-85.22
386.5	-85.2203
386.6	-85.2206
386.7	-85.2208
386.8	-85.2211
386.9	-85.2214
387	-85.2217
387.1	-85.2219
387.2	-85.2222
387.3	-85.2225
387.4	-85.2227
387.5	-85.223
387.6	-85.2233
387.7	-85.2236
387.8	-85.2238
387.9	-85.2241
388	-85.2244
388.1	-85.2246
388.2	-85.2249
388.3	-85.2252
388.4	-85.2254
388.5	-85.2257
388.6	-85.226
388.7	-85.2263
388.8	-85.2265
388.9	-85.2268
389	-85.2271
389.1	-85.2273
389.2	-85.2276
389.3	-85.2279
389.4	-85.2281
389.5	-85.2284
389.6	-85.2287
389.7	-85.2289
389.8	-85.2292
389.9	-85.2295
390	-85.2297
390.1	-85.23
390.2	-85.2303
390.3	-85.2305
390.4	-85.2308
390.5	-85.2311
390.6	-85.2313
390.7	-85.2316
390.8	-85.2319
390.9	-85.2321
391	-85.2324
391.1	-85.2327
391.2	-85.2329
391.3	-85.2332
391.4	-85.2335
391.5	-85.2337
391.6	-85.234
391.7	-85.2343
391.8	-85.2345
391.9	-85.2348
392	-85.2351
392.1	-85.2353
392.2	-85.2356
392.3	-85.2359
392.4	-85.2361
392.5	-85.2364
392.6	-85.2366
392.7	-85.2369
392.8	-85.2372
392.9	-85.2374
393	-85.2377
393.1	-85.238
393.2	-85.2382
393.3	-85.2385
393.4	-85.2388
393.5	-85.239
393.6	-85.2393
393.7	-85.2395
393.8	-85.2398
393.9	-85.2401
394	-85.2403
394.1	-85.2406
394.2	-85.2408
394.3	-85.2411
394.4	-85.2414
394.5	-85.2416
394.6	-85.2419
394.7	-85.2422
394.8	-85.2424
394.9	-85.2427
395	-85.2429
395.1	-85.2432
395.2	-85.2435
395.3	-85.2437
395.4	-85.244
395.5	-85.2442
395.6	-85.2445
395.7	-85.2448
395.8	-85.245
395.9	-85.2453
396	-85.2455
396.1	-85.2458
396.2	-85.246
396.3	-85.2463
396.4	-85.2466
396.5	-85.2468
396.6	-85.2471
396.7	-85.2473
396.8	-85.2476
396.9	-85.2479
397	-85.2481
397.1	-85.2484
397.2	-85.2486
397.3	-85.2489
397.4	-85.2491
397.5	-85.2494
397.6	-85.2497
397.7	-85.2499
397.8	-85.2502
397.9	-85.2504
398	-85.2507
398.1	-85.2509
398.2	-85.2512
398.3	-85.2515
398.4	-85.2517
398.5	-85.252
398.6	-85.2522
398.7	-85.2525
398.8	-85.2527
398.9	-85.253
399	-85.2532
399.1	-85.2535
399.2	-85.2537
399.3	-85.254
399.4	-85.2543
399.5	-85.2545
399.6	-85.2548
399.7	-85.255
399.8	-85.2553
399.9	-85.2555
400	-85.2558
400.1	-85.256
400.2	-85.2563
400.3	-85.2565
400.4	-85.2568
400.5	-85.257
400.6	-85.2573
400.7	-85.2575
400.8	-85.2578
400.9	-85.2581
401	-85.2583
401.1	-85.2586
401.2	-85.2588
401.3	-85.2591
401.4	-85.2593
401.5	-85.2596
401.6	-85.2598
401.7	-85.2601
401.8	-85.2603
401.9	-85.2606
402	-85.2608
402.1	-85.2611
402.2	-85.2613
402.3	-85.2616
402.4	-85.2618
402.5	-85.2621
402.6	-85.2623
402.7	-85.2626
402.8	-85.2628
402.9	-85.2631
403	-85.2633
403.1	-85.2636
403.2	-85.2638
403.3	-85.2641
403.4	-85.2643
403.5	-85.2646
403.6	-85.2648
403.7	-85.2651
403.8	-85.2653
403.9	-85.2656
404	-85.2658
404.1	-85.2661
404.2	-85.2663
404.3	-85.2666
404.4	-85.2668
404.5	-85.2671
404.6	-85.2673
404.7	-85.2675
404.8	-85.2678
404.9	-85.268
405	-85.2683
405.1	-85.2685
405.2	-85.2688
405.3	-85.269
405.4	-85.2693
405.5	-85.2695
405.6	-85.2698
405.7	-85.27
405.8	-85.2703
405.9	-85.2705
406	-85.2707
406.1	-85.271
406.2	-85.2712
406.3	-85.2715
406.4	-85.2717
406.5	-85.272
406.6	-85.2722
406.7	-85.2725
406.8	-85.2727
406.9	-85.273
407	-85.2732
407.1	-85.2734
407.2	-85.2737
407.3	-85.2739
407.4	-85.2742
407.5	-85.2744
407.6	-85.2747
407.7	-85.2749
407.8	-85.2751
407.9	-85.2754
408	-85.2756
408.1	-85.2759
408.2	-85.2761
408.3	-85.2764
408.4	-85.2766
408.5	-85.2768
408.6	-85.2771
408.7	-85.2773
408.8	-85.2776
408.9	-85.2778
409	-85.2781
409.1	-85.2783
409.2	-85.2785
409.3	-85.2788
409.4	-85.279
409.5	-85.2793
409.6	-85.2795
409.7	-85.2797
409.8	-85.28
409.9	-85.2802
410	-85.2805
410.1	-85.2807
410.2	-85.2809
410.3	-85.2812
410.4	-85.2814
410.5	-85.2817
410.6	-85.2819
410.7	-85.2821
410.8	-85.2824
410.9	-85.2826
411	-85.2829
411.1	-85.2831
411.2	-85.2833
411.3	-85.2836
411.4	-85.2838
411.5	-85.2841
411.6	-85.2843
411.7	-85.2845
411.8	-85.2848
411.9	-85.285
412	-85.2853
412.1	-85.2855
412.2	-85.2857
412.3	-85.286
412.4	-85.2862
412.5	-85.2864
412.6	-85.2867
412.7	-85.2869
412.8	-85.2872
412.9	-85.2874
413	-85.2876
413.1	-85.2879
413.2	-85.2881
413.3	-85.2883
413.4	-85.2886
413.5	-85.2888
413.6	-85.289
413.7	-85.2893
413.8	-85.2895
413.9	-85.2898
414	-85.29
414.1	-85.2902
414.2	-85.2905
414.3	-85.2907
414.4	-85.2909
414.5	-85.2912
414.6	-85.2914
414.7	-85.2916
414.8	-85.2919
414.9	-85.2921
415	-85.2923
415.1	-85.2926
415.2	-85.2928
415.3	-85.293
415.4	-85.2933
415.5	-85.2935
415.6	-85.2937
415.7	-85.294
415.8	-85.2942
415.9	-85.2944
416	-85.2947
416.1	-85.2949
416.2	-85.2951
416.3	-85.2954
416.4	-85.2956
416.5	-85.2958
416.6	-85.2961
416.7	-85.2963
416.8	-85.2965
416.9	-85.2968
417	-85.297
417.1	-85.2972
417.2	-85.2975
417.3	-85.2977
417.4	-85.2979
417.5	-85.2982
417.6	-85.2984
417.7	-85.2986
417.8	-85.2988
417.9	-85.2991
418	-85.2993
418.1	-85.2995
418.2	-85.2998
418.3	-85.3
418.4	-85.3002
418.5	-85.3005
418.6	-85.3007
418.7	-85.3009
418.8	-85.3011
418.9	-85.3014
419	-85.3016
419.1	-85.3018
419.2	-85.3021
419.3	-85.3023
419.4	-85.3025
419.5	-85.3028
419.6	-85.303
419.7	-85.3032
419.8	-85.3034
419.9	-85.3037
420	-85.3039
420.1	-85.3041
420.2	-85.3044
420.3	-85.3046
420.4	-85.3048
420.5	-85.305
420.6	-85.3053
420.7	-85.3055
420.8	-85.3057
420.9	-85.3059
421	-85.3062
421.1	-85.3064
421.2	-85.3066
421.3	-85.3069
421.4	-85.3071
421.5	-85.3073
421.6	-85.3075
421.7	-85.3078
421.8	-85.308
421.9	-85.3082
422	-85.3084
422.1	-85.3087
422.2	-85.3089
422.3	-85.3091
422.4	-85.3093
422.5	-85.3096
422.6	-85.3098
422.7	-85.31
422.8	-85.3102
422.9	-85.3105
423	-85.3107
423.1	-85.3109
423.2	-85.3111
423.3	-85.3114
423.4	-85.3116
423.5	-85.3118
423.6	-85.312
423.7	-85.3123
423.8	-85.3125
423.9	-85.3127
424	-85.3129
424.1	-85.3132
424.2	-85.3134
424.3	-85.3136
424.4	-85.3138
424.5	-85.314
424.6	-85.3143
424.7	-85.3145
424.8	-85.3147
424.9	-85.3149
425	-85.3152
425.1	-85.3154
425.2	-85.3156
425.3	-85.3158
425.4	-85.316
425.5	-85.3163
425.6	-85.3165
425.7	-85.3167
425.8	-85.3169
425.9	-85.3172
426	-85.3174
426.1	-85.3176
426.2	-85.3178
426.3	-85.318
426.4	-85.3183
426.5	-85.3185
426.6	-85.3187
426.7	-85.3189
426.8	-85.3191
426.9	-85.3194
427	-85.3196
427.1	-85.3198
427.2	-85.32
427.3	-85.3202
427.4	-85.3205
427.5	-85.3207
427.6	-85.3209
427.7	-85.3211
427.8	-85.3213
427.9	-85.3216
428	-85.3218
428.1	-85.322
428.2	-85.3222
428.3	-85.3224
428.4	-85.3227
428.5	-85.3229
428.6	-85.3231
428.7	-85.3233
428.8	-85.3235
428.9	-85.3237
429	-85.324
429.1	-85.3242
429.2	-85.3244
429.3	-85.3246
429.4	-85.3248
429.5	-85.325
429.6	-85.3253
429.7	-85.3255
429.8	-85.3257
429.9	-85.3259
430	-85.3261
430.1	-85.3264
430.2	-85.3266
430.3	-85.3268
430.4	-85.327
430.5	-85.3272
430.6	-85.3274
430.7	-85.3276
430.8	-85.3279
430.9	-85.3281
431	-85.3283
431.1	-85.3285
431.2	-85.3287
431.3	-85.3289
431.4	-85.3292
431.5	-85.3294
431.6	-85.3296
431.7	-85.3298
431.8	-85.33
431.9	-85.3302
432	-85.3304
432.1	-85.3307
432.2	-85.3309
432.3	-85.3311
432.4	-85.3313
432.5	-85.3315
432.6	-85.3317
432.7	-85.3319
432.8	-85.3322
432.9	-85.3324
433	-85.3326
433.1	-85.3328
433.2	-85.333
433.3	-85.3332
433.4	-85.3334
433.5	-85.3337
433.6	-85.3339
433.7	-85.3341
433.8	-85.3343
433.9	-85.3345
434	-85.3347
434.1	-85.3349
434.2	-85.3351
434.3	-85.3353
434.4	-85.3356
434.5	-85.3358
434.6	-85.336
434.7	-85.3362
434.8	-85.3364
434.9	-85.3366
435	-85.3368
435.1	-85.337
435.2	-85.3373
435.3	-85.3375
435.4	-85.3377
435.5	-85.3379
435.6	-85.3381
435.7	-85.3383
435.8	-85.3385
435.9	-85.3387
436	-85.3389
436.1	-85.3391
436.2	-85.3394
436.3	-85.3396
436.4	-85.3398
436.5	-85.34
436.6	-85.3402
436.7	-85.3404
436.8	-85.3406
436.9	-85.3408
437	-85.341
437.1	-85.3412
437.2	-85.3414
437.3	-85.3417
437.4	-85.3419
437.5	-85.3421
437.6	-85.3423
437.7	-85.3425
437.8	-85.3427
437.9	-85.3429
438	-85.3431
438.1	-85.3433
438.2	-85.3435
438.3	-85.3437
438.4	-85.3439
438.5	-85.3442
438.6	-85.3444
438.7	-85.3446
438.8	-85.3448
438.9	-85.345
439	-85.3452
439.1	-85.3454
439.2	-85.3456
439.3	-85.3458
439.4	-85.346
439.5	-85.3462
439.6	-85.3464
439.7	-85.3466
439.8	-85.3468
439.9	-85.347
440	-85.3473
440.1	-85.3475
440.2	-85.3477
440.3	-85.3479
440.4	-85.3481
440.5	-85.3483
440.6	-85.3485
440.7	-85.3487
440.8	-85.3489
440.9	-85.3491
441	-85.3493
441.1	-85.3495
441.2	-85.3497
441.3	-85.3499
441.4	-85.3501
441.5	-85.3503
441.6	-85.3505
441.7	-85.3507
441.8	-85.3509
441.9	-85.3511
442	-85.3513
442.1	-85.3516
442.2	-85.3518
442.3	-85.352
442.4	-85.3522
442.5	-85.3524
442.6	-85.3526
442.7	-85.3528
442.8	-85.353
442.9	-85.3532
443	-85.3534
443.1	-85.3536
443.2	-85.3538
443.3	-85.354
443.4	-85.3542
443.5	-85.3544
443.6	-85.3546
443.7	-85.3548
443.8	-85.355
443.9	-85.3552
444	-85.3554
444.1	-85.3556
444.2	-85.3558
444.3	-85.356
444.4	-85.3562
444.5	-85.3564
444.6	-85.3566
444.7	-85.3568
444.8	-85.357
444.9	-85.3572
445	-85.3574
445.1	-85.3576
445.2	-85.3578
445.3	-85.358
445.4	-85.3582
445.5	-85.3584
445.6	-85.3586
445.7	-85.3588
445.8	-85.359
445.9	-85.3592
446	-85.3594
446.1	-85.3596
446.2	-85.3598
446.3	-85.36
446.4	-85.3602
446.5	-85.3604
446.6	-85.3606
446.7	-85.3608
446.8	-85.361
446.9	-85.3612
447	-85.3614
447.1	-85.3616
447.2	-85.3618
447.3	-85.362
447.4	-85.3622
447.5	-85.3624
447.6	-85.3626
447.7	-85.3628
447.8	-85.363
447.9	-85.3632
448	-85.3634
448.1	-85.3636
448.2	-85.3638
448.3	-85.364
448.4	-85.3642
448.5	-85.3644
448.6	-85.3646
448.7	-85.3648
448.8	-85.365
448.9	-85.3652
449	-85.3654
449.1	-85.3656
449.2	-85.3658
449.3	-85.3659
449.4	-85.3661
449.5	-85.3663
449.6	-85.3665
449.7	-85.3667
449.8	-85.3669
449.9	-85.3671
450	-85.3673
450.1	-85.3675
450.2	-85.3677
450.3	-85.3679
450.4	-85.3681
450.5	-85.3683
450.6	-85.3685
450.7	-85.3687
450.8	-85.3689
450.9	-85.3691
451	-85.3693
451.1	-85.3695
451.2	-85.3697
451.3	-85.3699
451.4	-85.37
451.5	-85.3702
451.6	-85.3704
451.7	-85.3706
451.8	-85.3708
451.9	-85.371
452	-85.3712
452.1	-85.3714
452.2	-85.3716
452.3	-85.3718
452.4	-85.372
452.5	-85.3722
452.6	-85.3724
452.7	-85.3726
452.8	-85.3728
452.9	-85.373
453	-85.3731
453.1	-85.3733
453.2	-85.3735
453.3	-85.3737
453.4	-85.3739
453.5	-85.3741
453.6	-85.3743
453.7	-85.3745
453.8	-85.3747
453.9	-85.3749
454	-85.3751
454.1	-85.3753
454.2	-85.3754
454.3	-85.3756
454.4	-85.3758
454.5	-85.376
454.6	-85.3762
454.7	-85.3764
454.8	-85.3766
454.9	-85.3768
455	-85.377
455.1	-85.3772
455.2	-85.3774
455.3	-85.3775
455.4	-85.3777
455.5	-85.3779
455.6	-85.3781
455.7	-85.3783
455.8	-85.3785
455.9	-85.3787
456	-85.3789
456.1	-85.3791
456.2	-85.3793
456.3	-85.3794
456.4	-85.3796
456.5	-85.3798
456.6	-85.38
456.7	-85.3802
456.8	-85.3804
456.9	-85.3806
457	-85.3808
457.1	-85.381
457.2	-85.3811
457.3	-85.3813
457.4	-85.3815
457.5	-85.3817
457.6	-85.3819
457.7	-85.3821
457.8	-85.3823
457.9	-85.3825
458	-85.3827
458.1	-85.3828
458.2	-85.383
458.3	-85.3832
458.4	-85.3834
458.5	-85.3836
458.6	-85.3838
458.7	-85.384
458.8	-85.3842
458.9	-85.3843
459	-85.3845
459.1	-85.3847
459.2	-85.3849
459.3	-85.3851
459.4	-85.3853
459.5	-85.3855
459.6	-85.3856
459.7	-85.3858
459.8	-85.386
459.9	-85.3862
460	-85.3864
460.1	-85.3866
460.2	-85.3868
460.3	-85.3869
460.4	-85.3871
460.5	-85.3873
460.6	-85.3875
460.7	-85.3877
460.8	-85.3879
460.9	-85.3881
461	-85.3882
461.1	-85.3884
461.2	-85.3886
461.3	-85.3888
461.4	-85.389
461.5	-85.3892
461.6	-85.3894
461.7	-85.3895
461.8	-85.3897
461.9	-85.3899
462	-85.3901
462.1	-85.3903
462.2	-85.3905
462.3	-85.3906
462.4	-85.3908
462.5	-85.391
462.6	-85.3912
462.7	-85.3914
462.8	-85.3916
462.9	-85.3917
463	-85.3919
463.1	-85.3921
463.2	-85.3923
463.3	-85.3925
463.4	-85.3927
463.5	-85.3928
463.6	-85.393
463.7	-85.3932
463.8	-85.3934
463.9	-85.3936
464	-85.3938
464.1	-85.3939
464.2	-85.3941
464.3	-85.3943
464.4	-85.3945
464.5	-85.3947
464.6	-85.3948
464.7	-85.395
464.8	-85.3952
464.9	-85.3954
465	-85.3956
465.1	-85.3958
465.2	-85.3959
465.3	-85.3961
465.4	-85.3963
465.5	-85.3965
465.6	-85.3967
465.7	-85.3968
465.8	-85.397
465.9	-85.3972
466	-85.3974
466.1	-85.3976
466.2	-85.3977
466.3	-85.3979
466.4	-85.3981
466.5	-85.3983
466.6	-85.3985
466.7	-85.3986
466.8	-85.3988
466.9	-85.399
467	-85.3992
467.1	-85.3994
467.2	-85.3995
467.3	-85.3997
467.4	-85.3999
467.5	-85.4001
467.6	-85.4003
467.7	-85.4004
467.8	-85.4006
467.9	-85.4008
468	-85.401
468.1	-85.4011
468.2	-85.4013
468.3	-85.4015
468.4	-85.4017
468.5	-85.4019
468.6	-85.402
468.7	-85.4022
468.8	-85.4024
468.9	-85.4026
469	-85.4028
469.1	-85.4029
469.2	-85.4031
469.3	-85.4033
469.4	-85.4035
469.5	-85.4036
469.6	-85.4038
469.7	-85.404
469.8	-85.4042
469.9	-85.4043
470	-85.4045
470.1	-85.4047
470.2	-85.4049
470.3	-85.4051
470.4	-85.4052
470.5	-85.4054
470.6	-85.4056
470.7	-85.4058
470.8	-85.4059
470.9	-85.4061
471	-85.4063
471.1	-85.4065
471.2	-85.4066
471.3	-85.4068
471.4	-85.407
471.5	-85.4072
471.6	-85.4073
471.7	-85.4075
471.8	-85.4077
471.9	-85.4079
472	-85.408
472.1	-85.4082
472.2	-85.4084
472.3	-85.4086
472.4	-85.4087
472.5	-85.4089
472.6	-85.4091
472.7	-85.4093
472.8	-85.4094
472.9	-85.4096
473	-85.4098
473.1	-85.41
473.2	-85.4101
473.3	-85.4103
473.4	-85.4105
473.5	-85.4107
473.6	-85.4108
473.7	-85.411
473.8	-85.4112
473.9	-85.4114
474	-85.4115
474.1	-85.4117
474.2	-85.4119
474.3	-85.412
474.4	-85.4122
474.5	-85.4124
474.6	-85.4126
474.7	-85.4127
474.8	-85.4129
474.9	-85.4131
475	-85.4133
475.1	-85.4134
475.2	-85.4136
475.3	-85.4138
475.4	-85.4139
475.5	-85.4141
475.6	-85.4143
475.7	-85.4145
475.8	-85.4146
475.9	-85.4148
476	-85.415
476.1	-85.4151
476.2	-85.4153
476.3	-85.4155
476.4	-85.4157
476.5	-85.4158
476.6	-85.416
476.7	-85.4162
476.8	-85.4163
476.9	-85.4165
477	-85.4167
477.1	-85.4169
477.2	-85.417
477.3	-85.4172
477.4	-85.4174
477.5	-85.4175
477.6	-85.4177
477.7	-85.4179
477.8	-85.4181
477.9	-85.4182
478	-85.4184
478.1	-85.4186
478.2	-85.4187
478.3	-85.4189
478.4	-85.4191
478.5	-85.4192
478.6	-85.4194
478.7	-85.4196
478.8	-85.4197
478.9	-85.4199
479	-85.4201
479.1	-85.4203
479.2	-85.4204
479.3	-85.4206
479.4	-85.4208
479.5	-85.4209
479.6	-85.4211
479.7	-85.4213
479.8	-85.4214
479.9	-85.4216
480	-85.4218
480.1	-85.4219
480.2	-85.4221
480.3	-85.4223
480.4	-85.4224
480.5	-85.4226
480.6	-85.4228
480.7	-85.4229
480.8	-85.4231
480.9	-85.4233
481	-85.4234
481.1	-85.4236
481.2	-85.4238
481.3	-85.424
481.4	-85.4241
481.5	-85.4243
481.6	-85.4245
481.7	-85.4246
481.8	-85.4248
481.9	-85.425
482	-85.4251
482.1	-85.4253
482.2	-85.4255
482.3	-85.4256
482.4	-85.4258
482.5	-85.426
482.6	-85.4261
482.7	-85.4263
482.8	-85.4264
482.9	-85.4266
483	-85.4268
483.1	-85.4269
483.2	-85.4271
483.3	-85.4273
483.4	-85.4274
483.5	-85.4276
483.6	-85.4278
483.7	-85.4279
483.8	-85.4281
483.9	-85.4283
484	-85.4284
484.1	-85.4286
484.2	-85.4288
484.3	-85.4289
484.4	-85.4291
484.5	-85.4293
484.6	-85.4294
484.7	-85.4296
484.8	-85.4297
484.9	-85.4299
485	-85.4301
485.1	-85.4302
485.2	-85.4304
485.3	-85.4306
485.4	-85.4307
485.5	-85.4309
485.6	-85.4311
485.7	-85.4312
485.8	-85.4314
485.9	-85.4316
486	-85.4317
486.1	-85.4319
486.2	-85.432
486.3	-85.4322
486.4	-85.4324
486.5	-85.4325
486.6	-85.4327
486.7	-85.4329
486.8	-85.433
486.9	-85.4332
487	-85.4333
487.1	-85.4335
487.2	-85.4337
487.3	-85.4338
487.4	-85.434
487.5	-85.4342
487.6	-85.4343
487.7	-85.4345
487.8	-85.4346
487.9	-85.4348
488	-85.435
488.1	-85.4351
488.2	-85.4353
488.3	-85.4354
488.4	-85.4356
488.5	-85.4358
488.6	-85.4359
488.7	-85.4361
488.8	-85.4363
488.9	-85.4364
489	-85.4366
489.1	-85.4367
489.2	-85.4369
489.3	-85.4371
489.4	-85.4372
489.5	-85.4374
489.6	-85.4375
489.7	-85.4377
489.8	-85.4379
489.9	-85.438
490	-85.4382
490.1	-85.4383
490.2	-85.4385
490.3	-85.4387
490.4	-85.4388
490.5	-85.439
490.6	-85.4391
490.7	-85.4393
490.8	-85.4395
490.9	-85.4396
491	-85.4398
491.1	-85.4399
491.2	-85.4401
491.3	-85.4403
491.4	-85.4404
491.5	-85.4406
491.6	-85.4407
491.7	-85.4409
491.8	-85.4411
491.9	-85.4412
492	-85.4414
492.1	-85.4415
492.2	-85.4417
492.3	-85.4418
492.4	-85.442
492.5	-85.4422
492.6	-85.4423
492.7	-85.4425
492.8	-85.4426
492.9	-85.4428
493	-85.4429
493.1	-85.4431
493.2	-85.4433
493.3	-85.4434
493.4	-85.4436
493.5	-85.4437
493.6	-85.4439
493.7	-85.4441
493.8	-85.4442
493.9	-85.4444
494	-85.4445
494.1	-85.4447
494.2	-85.4448
494.3	-85.445
494.4	-85.4451
494.5	-85.4453
494.6	-85.4455
494.7	-85.4456
494.8	-85.4458
494.9	-85.4459
495	-85.4461
495.1	-85.4462
495.2	-85.4464
495.3	-85.4466
495.4	-85.4467
495.5	-85.4469
495.6	-85.447
495.7	-85.4472
495.8	-85.4473
495.9	-85.4475
496	-85.4476
496.1	-85.4478
496.2	-85.448
496.3	-85.4481
496.4	-85.4483
496.5	-85.4484
496.6	-85.4486
496.7	-85.4487
496.8	-85.4489
496.9	-85.449
497	-85.4492
497.1	-85.4494
497.2	-85.4495
497.3	-85.4497
497.4	-85.4498
497.5	-85.45
497.6	-85.4501
497.7	-85.4503
497.8	-85.4504
497.9	-85.4506
498	-85.4507
498.1	-85.4509
498.2	-85.451
498.3	-85.4512
498.4	-85.4514
498.5	-85.4515
498.6	-85.4517
498.7	-85.4518
498.8	-85.452
498.9	-85.4521
499	-85.4523
499.1	-85.4524
499.2	-85.4526
499.3	-85.4527
499.4	-85.4529
499.5	-85.453
499.6	-85.4532
499.7	-85.4533
499.8	-85.4535
499.9	-85.4536
500	-85.4538
500.1	-85.454
500.2	-85.4541
500.3	-85.4543
500.4	-85.4544
500.5	-85.4546
500.6	-85.4547
500.7	-85.4549
500.8	-85.455
500.9	-85.4552
501	-85.4553
501.1	-85.4555
501.2	-85.4556
501.3	-85.4558
501.4	-85.4559
501.5	-85.4561
501.6	-85.4562
501.7	-85.4564
501.8	-85.4565
501.9	-85.4567
502	-85.4568
502.1	-85.457
502.2	-85.4571
502.3	-85.4573
502.4	-85.4574
502.5	-85.4576
502.6	-85.4577
502.7	-85.4579
502.8	-85.458
502.9	-85.4582
503	-85.4583
503.1	-85.4585
503.2	-85.4586
503.3	-85.4588
503.4	-85.4589
503.5	-85.4591
503.6	-85.4592
503.7	-85.4594
503.8	-85.4595
503.9	-85.4597
504	-85.4598
504.1	-85.46
504.2	-85.4601
504.3	-85.4603
504.4	-85.4604
504.5	-85.4606
504.6	-85.4607
504.7	-85.4609
504.8	-85.461
504.9	-85.4612
505	-85.4613
505.1	-85.4615
505.2	-85.4616
505.3	-85.4618
505.4	-85.4619
505.5	-85.4621
505.6	-85.4622
505.7	-85.4624
505.8	-85.4625
505.9	-85.4627
506	-85.4628
506.1	-85.463
506.2	-85.4631
506.3	-85.4633
506.4	-85.4634
506.5	-85.4635
506.6	-85.4637
506.7	-85.4638
506.8	-85.464
506.9	-85.4641
507	-85.4643
507.1	-85.4644
507.2	-85.4646
507.3	-85.4647
507.4	-85.4649
507.5	-85.465
507.6	-85.4652
507.7	-85.4653
507.8	-85.4655
507.9	-85.4656
508	-85.4658
508.1	-85.4659
508.2	-85.466
508.3	-85.4662
508.4	-85.4663
508.5	-85.4665
508.6	-85.4666
508.7	-85.4668
508.8	-85.4669
508.9	-85.4671
509	-85.4672
509.1	-85.4674
509.2	-85.4675
509.3	-85.4677
509.4	-85.4678
509.5	-85.4679
509.6	-85.4681
509.7	-85.4682
509.8	-85.4684
509.9	-85.4685
510	-85.4687
510.1	-85.4688
510.2	-85.469
510.3	-85.4691
510.4	-85.4693
510.5	-85.4694
510.6	-85.4695
510.7	-85.4697
510.8	-85.4698
510.9	-85.47
511	-85.4701
511.1	-85.4703
511.2	-85.4704
511.3	-85.4706
511.4	-85.4707
511.5	-85.4708
511.6	-85.471
511.7	-85.4711
511.8	-85.4713
511.9	-85.4714
512	-85.4716
512.1	-85.4717
512.2	-85.4718
512.3	-85.472
512.4	-85.4721
512.5	-85.4723
512.6	-85.4724
512.7	-85.4726
512.8	-85.4727
512.9	-85.4729
513	-85.473
513.1	-85.4731
513.2	-85.4733
513.3	-85.4734
513.4	-85.4736
513.5	-85.4737
513.6	-85.4739
513.7	-85.474
513.8	-85.4741
513.9	-85.4743
514	-85.4744
514.1	-85.4746
514.2	-85.4747
514.3	-85.4748
514.4	-85.475
514.5	-85.4751
514.6	-85.4753
514.7	-85.4754
514.8	-85.4756
514.9	-85.4757
515	-85.4758
515.1	-85.476
515.2	-85.4761
515.3	-85.4763
515.4	-85.4764
515.5	-85.4765
515.6	-85.4767
515.7	-85.4768
515.8	-85.477
515.9	-85.4771
516	-85.4773
516.1	-85.4774
516.2	-85.4775
516.3	-85.4777
516.4	-85.4778
516.5	-85.478
516.6	-85.4781
516.7	-85.4782
516.8	-85.4784
516.9	-85.4785
517	-85.4787
517.1	-85.4788
517.2	-85.4789
517.3	-85.4791
517.4	-85.4792
517.5	-85.4794
517.6	-85.4795
517.7	-85.4796
517.8	-85.4798
517.9	-85.4799
518	-85.4801
518.1	-85.4802
518.2	-85.4803
518.3	-85.4805
518.4	-85.4806
518.5	-85.4808
518.6	-85.4809
518.7	-85.481
518.8	-85.4812
518.9	-85.4813
519	-85.4814
519.1	-85.4816
519.2	-85.4817
519.3	-85.4819
519.4	-85.482
519.5	-85.4821
519.6	-85.4823
519.7	-85.4824
519.8	-85.4826
519.9	-85.4827
520	-85.4828
520.1	-85.483
520.2	-85.4831
520.3	-85.4832
520.4	-85.4834
520.5	-85.4835
520.6	-85.4837
520.7	-85.4838
520.8	-85.4839
520.9	-85.4841
521	-85.4842
521.1	-85.4844
521.2	-85.4845
521.3	-85.4846
521.4	-85.4848
521.5	-85.4849
521.6	-85.485
521.7	-85.4852
521.8	-85.4853
521.9	-85.4854
522	-85.4856
522.1	-85.4857
522.2	-85.4859
522.3	-85.486
522.4	-85.4861
522.5	-85.4863
522.6	-85.4864
522.7	-85.4865
522.8	-85.4867
522.9	-85.4868
523	-85.487
523.1	-85.4871
523.2	-85.4872
523.3	-85.4874
523.4	-85.4875
523.5	-85.4876
523.6	-85.4878
523.7	-85.4879
523.8	-85.488
523.9	-85.4882
524	-85.4883
524.1	-85.4884
524.2	-85.4886
524.3	-85.4887
524.4	-85.4889
524.5	-85.489
524.6	-85.4891
524.7	-85.4893
524.8	-85.4894
524.9	-85.4895
525	-85.4897
525.1	-85.4898
525.2	-85.4899
525.3	-85.4901
525.4	-85.4902
525.5	-85.4903
525.6	-85.4905
525.7	-85.4906
525.8	-85.4907
525.9	-85.4909
526	-85.491
526.1	-85.4911
526.2	-85.4913
526.3	-85.4914
526.4	-85.4915
526.5	-85.4917
526.6	-85.4918
526.7	-85.4919
526.8	-85.4921
526.9	-85.4922
527	-85.4923
527.1	-85.4925
527.2	-85.4926
527.3	-85.4927
527.4	-85.4929
527.5	-85.493
527.6	-85.4931
527.7	-85.4933
527.8	-85.4934
527.9	-85.4935
528	-85.4937
528.1	-85.4938
528.2	-85.4939
528.3	-85.4941
528.4	-85.4942
528.5	-85.4943
528.6	-85.4945
528.7	-85.4946
528.8	-85.4947
528.9	-85.4949
529	-85.495
529.1	-85.4951
529.2	-85.4953
529.3	-85.4954
529.4	-85.4955
529.5	-85.4957
529.6	-85.4958
529.7	-85.4959
529.8	-85.4961
529.9	-85.4962
530	-85.4963
530.1	-85.4965
530.2	-85.4966
530.3	-85.4967
530.4	-85.4969
530.5	-85.497
530.6	-85.4971
530.7	-85.4972
530.8	-85.4974
530.9	-85.4975
531	-85.4976
531.1	-85.4978
531.2	-85.4979
531.3	-85.498
531.4	-85.4982
531.5	-85.4983
531.6	-85.4984
531.7	-85.4986
531.8	-85.4987
531.9	-85.4988
532	-85.4989
532.1	-85.4991
532.2	-85.4992
532.3	-85.4993
532.4	-85.4995
532.5	-85.4996
532.6	-85.4997
532.7	-85.4999
532.8	-85.5
532.9	-85.5001
533	-85.5003
533.1	-85.5004
533.2	-85.5005
533.3	-85.5006
533.4	-85.5008
533.5	-85.5009
533.6	-85.501
533.7	-85.5012
533.8	-85.5013
533.9	-85.5014
534	-85.5015
534.1	-85.5017
534.2	-85.5018
534.3	-85.5019
534.4	-85.5021
534.5	-85.5022
534.6	-85.5023
534.7	-85.5024
534.8	-85.5026
534.9	-85.5027
535	-85.5028
535.1	-85.503
535.2	-85.5031
535.3	-85.5032
535.4	-85.5033
535.5	-85.5035
535.6	-85.5036
535.7	-85.5037
535.8	-85.5039
535.9	-85.504
536	-85.5041
536.1	-85.5042
536.2	-85.5044
536.3	-85.5045
536.4	-85.5046
536.5	-85.5048
536.6	-85.5049
536.7	-85.505
536.8	-85.5051
536.9	-85.5053
537	-85.5054
537.1	-85.5055
537.2	-85.5056
537.3	-85.5058
537.4	-85.5059
537.5	-85.506
537.6	-85.5062
537.7	-85.5063
537.8	-85.5064
537.9	-85.5065
538	-85.5067
538.1	-85.5068
538.2	-85.5069
538.3	-85.507
538.4	-85.5072
538.5	-85.5073
538.6	-85.5074
538.7	-85.5075
538.8	-85.5077
538.9	-85.5078
539	-85.5079
539.1	-85.5081
539.2	-85.5082
539.3	-85.5083
539.4	-85.5084
539.5	-85.5086
539.6	-85.5087
539.7	-85.5088
539.8	-85.5089
539.9	-85.5091
540	-85.5092
540.1	-85.5093
540.2	-85.5094
540.3	-85.5096
540.4	-85.5097
540.5	-85.5098
540.6	-85.5099
540.7	-85.5101
540.8	-85.5102
540.9	-85.5103
541	-85.5104
541.1	-85.5106
541.2	-85.5107
541.3	-85.5108
541.4	-85.5109
541.5	-85.5111
541.6	-85.5112
541.7	-85.5113
541.8	-85.5114
541.9	-85.5116
542	-85.5117
542.1	-85.5118
542.2	-85.5119
542.3	-85.5121
542.4	-85.5122
542.5	-85.5123
542.6	-85.5124
542.7	-85.5126
542.8	-85.5127
542.9	-85.5128
543	-85.5129
543.1	-85.513
543.2	-85.5132
543.3	-85.5133
543.4	-85.5134
543.5	-85.5135
543.6	-85.5137
543.7	-85.5138
543.8	-85.5139
543.9	-85.514
544	-85.5142
544.1	-85.5143
544.2	-85.5144
544.3	-85.5145
544.4	-85.5147
544.5	-85.5148
544.6	-85.5149
544.7	-85.515
544.8	-85.5151
544.9	-85.5153
545	-85.5154
545.1	-85.5155
545.2	-85.5156
545.3	-85.5158
545.4	-85.5159
545.5	-85.516
545.6	-85.5161
545.7	-85.5162
545.8	-85.5164
545.9	-85.5165
546	-85.5166
546.1	-85.5167
546.2	-85.5169
546.3	-85.517
546.4	-85.5171
546.5	-85.5172
546.6	-85.5173
546.7	-85.5175
546.8	-85.5176
546.9	-85.5177
547	-85.5178
547.1	-85.5179
547.2	-85.5181
547.3	-85.5182
547.4	-85.5183
547.5	-85.5184
547.6	-85.5186
547.7	-85.5187
547.8	-85.5188
547.9	-85.5189
548	-85.519
548.1	-85.5192
548.2	-85.5193
548.3	-85.5194
548.4	-85.5195
548.5	-85.5196
548.6	-85.5198
548.7	-85.5199
548.8	-85.52
548.9	-85.5201
549	-85.5202
549.1	-85.5204
549.2	-85.5205
549.3	-85.5206
549.4	-85.5207
549.5	-85.5208
549.6	-85.521
549.7	-85.5211
549.8	-85.5212
549.9	-85.5213
550	-85.5214
550.1	-85.5216
550.2	-85.5217
550.3	-85.5218
550.4	-85.5219
550.5	-85.522
550.6	-85.5222
550.7	-85.5223
550.8	-85.5224
550.9	-85.5225
551	-85.5226
551.1	-85.5228
551.2	-85.5229
551.3	-85.523
551.4	-85.5231
551.5	-85.5232
551.6	-85.5233
551.7	-85.5235
551.8	-85.5236
551.9	-85.5237
552	-85.5238
552.1	-85.5239
552.2	-85.5241
552.3	-85.5242
552.4	-85.5243
552.5	-85.5244
552.6	-85.5245
552.7	-85.5247
552.8	-85.5248
552.9	-85.5249
553	-85.525
553.1	-85.5251
553.2	-85.5252
553.3	-85.5254
553.4	-85.5255
553.5	-85.5256
553.6	-85.5257
553.7	-85.5258
553.8	-85.5259
553.9	-85.5261
554	-85.5262
554.1	-85.5263
554.2	-85.5264
554.3	-85.5265
554.4	-85.5267
554.5	-85.5268
554.6	-85.5269
554.7	-85.527
554.8	-85.5271
554.9	-85.5272
555	-85.5274
555.1	-85.5275
555.2	-85.5276
555.3	-85.5277
555.4	-85.5278
555.5	-85.5279
555.6	-85.5281
555.7	-85.5282
555.8	-85.5283
555.9	-85.5284
556	-85.5285
556.1	-85.5286
556.2	-85.5288
556.3	-85.5289
556.4	-85.529
556.5	-85.5291
556.6	-85.5292
556.7	-85.5293
556.8	-85.5294
556.9	-85.5296
557	-85.5297
557.1	-85.5298
557.2	-85.5299
557.3	-85.53
557.4	-85.5301
557.5	-85.5303
557.6	-85.5304
557.7	-85.5305
557.8	-85.5306
557.9	-85.5307
558	-85.5308
558.1	-85.5309
558.2	-85.5311
558.3	-85.5312
558.4	-85.5313
558.5	-85.5314
558.6	-85.5315
558.7	-85.5316
558.8	-85.5318
558.9	-85.5319
559	-85.532
559.1	-85.5321
559.2	-85.5322
559.3	-85.5323
559.4	-85.5324
559.5	-85.5326
559.6	-85.5327
559.7	-85.5328
559.8	-85.5329
559.9	-85.533
560	-85.5331
560.1	-85.5332
560.2	-85.5334
560.3	-85.5335
560.4	-85.5336
560.5	-85.5337
560.6	-85.5338
560.7	-85.5339
560.8	-85.534
560.9	-85.5342
561	-85.5343
561.1	-85.5344
561.2	-85.5345
561.3	-85.5346
561.4	-85.5347
561.5	-85.5348
561.6	-85.5349
561.7	-85.5351
561.8	-85.5352
561.9	-85.5353
562	-85.5354
562.1	-85.5355
562.2	-85.5356
562.3	-85.5357
562.4	-85.5359
562.5	-85.536
562.6	-85.5361
562.7	-85.5362
562.8	-85.5363
562.9	-85.5364
563	-85.5365
563.1	-85.5366
563.2	-85.5368
563.3	-85.5369
563.4	-85.537
563.5	-85.5371
563.6	-85.5372
563.7	-85.5373
563.8	-85.5374
563.9	-85.5375
564	-85.5376
564.1	-85.5378
564.2	-85.5379
564.3	-85.538
564.4	-85.5381
564.5	-85.5382
564.6	-85.5383
564.7	-85.5384
564.8	-85.5385
564.9	-85.5387
565	-85.5388
565.1	-85.5389
565.2	-85.539
565.3	-85.5391
565.4	-85.5392
565.5	-85.5393
565.6	-85.5394
565.7	-85.5395
565.8	-85.5397
565.9	-85.5398
566	-85.5399
566.1	-85.54
566.2	-85.5401
566.3	-85.5402
566.4	-85.5403
566.5	-85.5404
566.6	-85.5405
566.7	-85.5407
566.8	-85.5408
566.9	-85.5409
567	-85.541
567.1	-85.5411
567.2	-85.5412
567.3	-85.5413
567.4	-85.5414
567.5	-85.5415
567.6	-85.5416
567.7	-85.5418
567.8	-85.5419
567.9	-85.542
568	-85.5421
568.1	-85.5422
568.2	-85.5423
568.3	-85.5424
568.4	-85.5425
568.5	-85.5426
568.6	-85.5427
568.7	-85.5429
568.8	-85.543
568.9	-85.5431
569	-85.5432
569.1	-85.5433
569.2	-85.5434
569.3	-85.5435
569.4	-85.5436
569.5	-85.5437
569.6	-85.5438
569.7	-85.5439
569.8	-85.5441
569.9	-85.5442
570	-85.5443
570.1	-85.5444
570.2	-85.5445
570.3	-85.5446
570.4	-85.5447
570.5	-85.5448
570.6	-85.5449
570.7	-85.545
570.8	-85.5451
570.9	-85.5452
571	-85.5454
571.1	-85.5455
571.2	-85.5456
571.3	-85.5457
571.4	-85.5458
571.5	-85.5459
571.6	-85.546
571.7	-85.5461
571.8	-85.5462
571.9	-85.5463
572	-85.5464
572.1	-85.5465
572.2	-85.5467
572.3	-85.5468
572.4	-85.5469
572.5	-85.547
572.6	-85.5471
572.7	-85.5472
572.8	-85.5473
572.9	-85.5474
573	-85.5475
573.1	-85.5476
573.2	-85.5477
573.3	-85.5478
573.4	-85.5479
573.5	-85.548
573.6	-85.5482
573.7	-85.5483
573.8	-85.5484
573.9	-85.5485
574	-85.5486
574.1	-85.5487
574.2	-85.5488
574.3	-85.5489
574.4	-85.549
574.5	-85.5491
574.6	-85.5492
574.7	-85.5493
574.8	-85.5494
574.9	-85.5495
575	-85.5496
575.1	-85.5498
575.2	-85.5499
575.3	-85.55
575.4	-85.5501
575.5	-85.5502
575.6	-85.5503
575.7	-85.5504
575.8	-85.5505
575.9	-85.5506
576	-85.5507
576.1	-85.5508
576.2	-85.5509
576.3	-85.551
576.4	-85.5511
576.5	-85.5512
576.6	-85.5513
576.7	-85.5514
576.8	-85.5516
576.9	-85.5517
577	-85.5518
577.1	-85.5519
577.2	-85.552
577.3	-85.5521
577.4	-85.5522
577.5	-85.5523
577.6	-85.5524
577.7	-85.5525
577.8	-85.5526
577.9	-85.5527
578	-85.5528
578.1	-85.5529
578.2	-85.553
578.3	-85.5531
578.4	-85.5532
578.5	-85.5533
578.6	-85.5534
578.7	-85.5535
578.8	-85.5537
578.9	-85.5538
579	-85.5539
579.1	-85.554
579.2	-85.5541
579.3	-85.5542
579.4	-85.5543
579.5	-85.5544
579.6	-85.5545
579.7	-85.5546
579.8	-85.5547
579.9	-85.5548
580	-85.5549
580.1	-85.555
580.2	-85.5551
580.3	-85.5552
580.4	-85.5553
580.5	-85.5554
580.6	-85.5555
580.7	-85.5556
580.8	-85.5557
580.9	-85.5558
581	-85.5559
581.1	-85.556
581.2	-85.5561
581.3	-85.5562
581.4	-85.5564
581.5	-85.5565
581.6	-85.5566
581.7	-85.5567
581.8	-85.5568
581.9	-85.5569
582	-85.557
582.1	-85.5571
582.2	-85.5572
582.3	-85.5573
582.4	-85.5574
582.5	-85.5575
582.6	-85.5576
582.7	-85.5577
582.8	-85.5578
582.9	-85.5579
583	-85.558
583.1	-85.5581
583.2	-85.5582
583.3	-85.5583
583.4	-85.5584
583.5	-85.5585
583.6	-85.5586
583.7	-85.5587
583.8	-85.5588
583.9	-85.5589
584	-85.559
584.1	-85.5591
584.2	-85.5592
584.3	-85.5593
584.4	-85.5594
584.5	-85.5595
584.6	-85.5596
584.7	-85.5597
584.8	-85.5598
584.9	-85.5599
585	-85.56
585.1	-85.5601
585.2	-85.5602
585.3	-85.5603
585.4	-85.5604
585.5	-85.5605
585.6	-85.5606
585.7	-85.5607
585.8	-85.5608
585.9	-85.5609
586	-85.561
586.1	-85.5611
586.2	-85.5612
586.3	-85.5613
586.4	-85.5614
586.5	-85.5616
586.6	-85.5617
586.7	-85.5618
586.8	-85.5619
586.9	-85.562
587	-85.5621
587.1	-85.5622
587.2	-85.5623
587.3	-85.5624
587.4	-85.5625
587.5	-85.5626
587.6	-85.5627
587.7	-85.5628
587.8	-85.5629
587.9	-85.563
588	-85.5631
588.1	-85.5632
588.2	-85.5633
588.3	-85.5634
588.4	-85.5635
588.5	-85.5636
588.6	-85.5637
588.7	-85.5638
588.8	-85.5639
588.9	-85.564
589	-85.5641
589.1	-85.5642
589.2	-85.5643
589.3	-85.5644
589.4	-85.5645
589.5	-85.5646
589.6	-85.5647
589.7	-85.5647
589.8	-85.5648
589.9	-85.5649
590	-85.565
590.1	-85.5651
590.2	-85.5652
590.3	-85.5653
590.4	-85.5654
590.5	-85.5655
590.6	-85.5656
590.7	-85.5657
590.8	-85.5658
590.9	-85.5659
591	-85.566
591.1	-85.5661
591.2	-85.5662
591.3	-85.5663
591.4	-85.5664
591.5	-85.5665
591.6	-85.5666
591.7	-85.5667
591.8	-85.5668
591.9	-85.5669
592	-85.567
592.1	-85.5671
592.2	-85.5672
592.3	-85.5673
592.4	-85.5674
592.5	-85.5675
592.6	-85.5676
592.7	-85.5677
592.8	-85.5678
592.9	-85.5679
593	-85.568
593.1	-85.5681
593.2	-85.5682
593.3	-85.5683
593.4	-85.5684
593.5	-85.5685
593.6	-85.5686
593.7	-85.5687
593.8	-85.5688
593.9	-85.5689
594	-85.569
594.1	-85.5691
594.2	-85.5692
594.3	-85.5693
594.4	-85.5694
594.5	-85.5695
594.6	-85.5696
594.7	-85.5697
594.8	-85.5698
594.9	-85.5698
595	-85.5699
595.1	-85.57
595.2	-85.5701
595.3	-85.5702
595.4	-85.5703
595.5	-85.5704
595.6	-85.5705
595.7	-85.5706
595.8	-85.5707
595.9	-85.5708
596	-85.5709
596.1	-85.571
596.2	-85.5711
596.3	-85.5712
596.4	-85.5713
596.5	-85.5714
596.6	-85.5715
596.7	-85.5716
596.8	-85.5717
596.9	-85.5718
597	-85.5719
597.1	-85.572
597.2	-85.5721
597.3	-85.5722
597.4	-85.5723
597.5	-85.5724
597.6	-85.5724
597.7	-85.5725
597.8	-85.5726
597.9	-85.5727
598	-85.5728
598.1	-85.5729
598.2	-85.573
598.3	-85.5731
598.4	-85.5732
598.5	-85.5733
598.6	-85.5734
598.7	-85.5735
598.8	-85.5736
598.9	-85.5737
599	-85.5738
599.1	-85.5739
599.2	-85.574
599.3	-85.5741
599.4	-85.5742
599.5	-85.5743
599.6	-85.5743
599.7	-85.5744
599.8	-85.5745
599.9	-85.5746
600	-85.5747
600.1	-85.5748
600.2	-85.5749
600.3	-85.575
600.4	-85.5751
600.5	-85.5752
600.6	-85.5753
600.7	-85.5754
600.8	-85.5755
600.9	-85.5756
601	-85.5757
601.1	-85.5758
601.2	-85.5759
601.3	-85.576
601.4	-85.576
601.5	-85.5761
601.6	-85.5762
601.7	-85.5763
601.8	-85.5764
601.9	-85.5765
602	-85.5766
602.1	-85.5767
602.2	-85.5768
602.3	-85.5769
602.4	-85.577
602.5	-85.5771
602.6	-85.5772
602.7	-85.5773
602.8	-85.5774
602.9	-85.5775
603	-85.5775
603.1	-85.5776
603.2	-85.5777
603.3	-85.5778
603.4	-85.5779
603.5	-85.578
603.6	-85.5781
603.7	-85.5782
603.8	-85.5783
603.9	-85.5784
604	-85.5785
604.1	-85.5786
604.2	-85.5787
604.3	-85.5788
604.4	-85.5788
604.5	-85.5789
604.6	-85.579
604.7	-85.5791
604.8	-85.5792
604.9	-85.5793
605	-85.5794
605.1	-85.5795
605.2	-85.5796
605.3	-85.5797
605.4	-85.5798
605.5	-85.5799
605.6	-85.58
605.7	-85.58
605.8	-85.5801
605.9	-85.5802
606	-85.5803
606.1	-85.5804
606.2	-85.5805
606.3	-85.5806
606.4	-85.5807
606.5	-85.5808
606.6	-85.5809
606.7	-85.581
606.8	-85.5811
606.9	-85.5812
607	-85.5812
607.1	-85.5813
607.2	-85.5814
607.3	-85.5815
607.4	-85.5816
607.5	-85.5817
607.6	-85.5818
607.7	-85.5819
607.8	-85.582
607.9	-85.5821
608	-85.5822
608.1	-85.5822
608.2	-85.5823
608.3	-85.5824
608.4	-85.5825
608.5	-85.5826
608.6	-85.5827
608.7	-85.5828
608.8	-85.5829
608.9	-85.583
609	-85.5831
609.1	-85.5832
609.2	-85.5832
609.3	-85.5833
609.4	-85.5834
609.5	-85.5835
609.6	-85.5836
609.7	-85.5837
609.8	-85.5838
609.9	-85.5839
610	-85.584
610.1	-85.5841
610.2	-85.5842
610.3	-85.5842
610.4	-85.5843
610.5	-85.5844
610.6	-85.5845
610.7	-85.5846
610.8	-85.5847
610.9	-85.5848
611	-85.5849
611.1	-85.585
611.2	-85.5851
611.3	-85.5851
611.4	-85.5852
611.5	-85.5853
611.6	-85.5854
611.7	-85.5855
611.8	-85.5856
611.9	-85.5857
612	-85.5858
612.1	-85.5859
612.2	-85.5859
612.3	-85.586
612.4	-85.5861
612.5	-85.5862
612.6	-85.5863
612.7	-85.5864
612.8	-85.5865
612.9	-85.5866
613	-85.5867
613.1	-85.5867
613.2	-85.5868
613.3	-85.5869
613.4	-85.587
613.5	-85.5871
613.6	-85.5872
613.7	-85.5873
613.8	-85.5874
613.9	-85.5875
614	-85.5875
614.1	-85.5876
614.2	-85.5877
614.3	-85.5878
614.4	-85.5879
614.5	-85.588
614.6	-85.5881
614.7	-85.5882
614.8	-85.5883
614.9	-85.5883
615	-85.5884
615.1	-85.5885
615.2	-85.5886
615.3	-85.5887
615.4	-85.5888
615.5	-85.5889
615.6	-85.589
615.7	-85.589
615.8	-85.5891
615.9	-85.5892
616	-85.5893
616.1	-85.5894
616.2	-85.5895
616.3	-85.5896
616.4	-85.5897
616.5	-85.5898
616.6	-85.5898
616.7	-85.5899
616.8	-85.59
616.9	-85.5901
617	-85.5902
617.1	-85.5903
617.2	-85.5904
617.3	-85.5905
617.4	-85.5905
617.5	-85.5906
617.6	-85.5907
617.7	-85.5908
617.8	-85.5909
617.9	-85.591
618	-85.5911
618.1	-85.5911
618.2	-85.5912
618.3	-85.5913
618.4	-85.5914
618.5	-85.5915
618.6	-85.5916
618.7	-85.5917
618.8	-85.5918
618.9	-85.5918
619	-85.5919
619.1	-85.592
619.2	-85.5921
619.3	-85.5922
619.4	-85.5923
619.5	-85.5924
619.6	-85.5924
619.7	-85.5925
619.8	-85.5926
619.9	-85.5927
620	-85.5928
620.1	-85.5929
620.2	-85.593
620.3	-85.5931
620.4	-85.5931
620.5	-85.5932
620.6	-85.5933
620.7	-85.5934
620.8	-85.5935
620.9	-85.5936
621	-85.5937
621.1	-85.5937
621.2	-85.5938
621.3	-85.5939
621.4	-85.594
621.5	-85.5941
621.6	-85.5942
621.7	-85.5943
621.8	-85.5943
621.9	-85.5944
622	-85.5945
622.1	-85.5946
622.2	-85.5947
622.3	-85.5948
622.4	-85.5949
622.5	-85.5949
622.6	-85.595
622.7	-85.5951
622.8	-85.5952
622.9	-85.5953
623	-85.5954
623.1	-85.5954
623.2	-85.5955
623.3	-85.5956
623.4	-85.5957
623.5	-85.5958
623.6	-85.5959
623.7	-85.596
623.8	-85.596
623.9	-85.5961
624	-85.5962
624.1	-85.5963
624.2	-85.5964
624.3	-85.5965
624.4	-85.5965
624.5	-85.5966
624.6	-85.5967
624.7	-85.5968
624.8	-85.5969
624.9	-85.597
625	-85.5971
625.1	-85.5971
625.2	-85.5972
625.3	-85.5973
625.4	-85.5974
625.5	-85.5975
625.6	-85.5976
625.7	-85.5976
625.8	-85.5977
625.9	-85.5978
626	-85.5979
626.1	-85.598
626.2	-85.5981
626.3	-85.5981
626.4	-85.5982
626.5	-85.5983
626.6	-85.5984
626.7	-85.5985
626.8	-85.5986
626.9	-85.5987
627	-85.5987
627.1	-85.5988
627.2	-85.5989
627.3	-85.599
627.4	-85.5991
627.5	-85.5992
627.6	-85.5992
627.7	-85.5993
627.8	-85.5994
627.9	-85.5995
628	-85.5996
628.1	-85.5996
628.2	-85.5997
628.3	-85.5998
628.4	-85.5999
628.5	-85.6
628.6	-85.6001
628.7	-85.6001
628.8	-85.6002
628.9	-85.6003
629	-85.6004
629.1	-85.6005
629.2	-85.6006
629.3	-85.6006
629.4	-85.6007
629.5	-85.6008
629.6	-85.6009
629.7	-85.601
629.8	-85.6011
629.9	-85.6011
630	-85.6012
630.1	-85.6013
630.2	-85.6014
630.3	-85.6015
630.4	-85.6016
630.5	-85.6016
630.6	-85.6017
630.7	-85.6018
630.8	-85.6019
630.9	-85.602
631	-85.602
631.1	-85.6021
631.2	-85.6022
631.3	-85.6023
631.4	-85.6024
631.5	-85.6025
631.6	-85.6025
631.7	-85.6026
631.8	-85.6027
631.9	-85.6028
632	-85.6029
632.1	-85.6029
632.2	-85.603
632.3	-85.6031
632.4	-85.6032
632.5	-85.6033
632.6	-85.6033
632.7	-85.6034
632.8	-85.6035
632.9	-85.6036
633	-85.6037
633.1	-85.6038
633.2	-85.6038
633.3	-85.6039
633.4	-85.604
633.5	-85.6041
633.6	-85.6042
633.7	-85.6042
633.8	-85.6043
633.9	-85.6044
634	-85.6045
634.1	-85.6046
634.2	-85.6046
634.3	-85.6047
634.4	-85.6048
634.5	-85.6049
634.6	-85.605
634.7	-85.6051
634.8	-85.6051
634.9	-85.6052
635	-85.6053
635.1	-85.6054
635.2	-85.6055
635.3	-85.6055
635.4	-85.6056
635.5	-85.6057
635.6	-85.6058
635.7	-85.6059
635.8	-85.6059
635.9	-85.606
636	-85.6061
636.1	-85.6062
636.2	-85.6063
636.3	-85.6063
636.4	-85.6064
636.5	-85.6065
636.6	-85.6066
636.7	-85.6067
636.8	-85.6067
636.9	-85.6068
637	-85.6069
637.1	-85.607
637.2	-85.6071
637.3	-85.6071
637.4	-85.6072
637.5	-85.6073
637.6	-85.6074
637.7	-85.6075
637.8	-85.6075
637.9	-85.6076
638	-85.6077
638.1	-85.6078
638.2	-85.6078
638.3	-85.6079
638.4	-85.608
638.5	-85.6081
638.6	-85.6082
638.7	-85.6082
638.8	-85.6083
638.9	-85.6084
639	-85.6085
639.1	-85.6086
639.2	-85.6086
639.3	-85.6087
639.4	-85.6088
639.5	-85.6089
639.6	-85.609
639.7	-85.609
639.8	-85.6091
639.9	-85.6092
640	-85.6093
640.1	-85.6093
640.2	-85.6094
640.3	-85.6095
640.4	-85.6096
640.5	-85.6097
640.6	-85.6097
640.7	-85.6098
640.8	-85.6099
640.9	-85.61
641	-85.6101
641.1	-85.6101
641.2	-85.6102
641.3	-85.6103
641.4	-85.6104
641.5	-85.6104
641.6	-85.6105
641.7	-85.6106
641.8	-85.6107
641.9	-85.6108
642	-85.6108
642.1	-85.6109
642.2	-85.611
642.3	-85.6111
642.4	-85.6111
642.5	-85.6112
642.6	-85.6113
642.7	-85.6114
642.8	-85.6115
642.9	-85.6115
643	-85.6116
643.1	-85.6117
643.2	-85.6118
643.3	-85.6118
643.4	-85.6119
643.5	-85.612
643.6	-85.6121
643.7	-85.6122
643.8	-85.6122
643.9	-85.6123
644	-85.6124
644.1	-85.6125
644.2	-85.6125
644.3	-85.6126
644.4	-85.6127
644.5	-85.6128
644.6	-85.6129
644.7	-85.6129
644.8	-85.613
644.9	-85.6131
645	-85.6132
645.1	-85.6132
645.2	-85.6133
645.3	-85.6134
645.4	-85.6135
645.5	-85.6135
645.6	-85.6136
645.7	-85.6137
645.8	-85.6138
645.9	-85.6139
646	-85.6139
646.1	-85.614
646.2	-85.6141
646.3	-85.6142
646.4	-85.6142
646.5	-85.6143
646.6	-85.6144
646.7	-85.6145
646.8	-85.6145
646.9	-85.6146
647	-85.6147
647.1	-85.6148
647.2	-85.6148
647.3	-85.6149
647.4	-85.615
647.5	-85.6151
647.6	-85.6151
647.7	-85.6152
647.8	-85.6153
647.9	-85.6154
648	-85.6155
648.1	-85.6155
648.2	-85.6156
648.3	-85.6157
648.4	-85.6158
648.5	-85.6158
648.6	-85.6159
648.7	-85.616
648.8	-85.6161
648.9	-85.6161
649	-85.6162
649.1	-85.6163
649.2	-85.6164
649.3	-85.6164
649.4	-85.6165
649.5	-85.6166
649.6	-85.6167
649.7	-85.6167
649.8	-85.6168
649.9	-85.6169
650	-85.617
650.1	-85.617
650.2	-85.6171
650.3	-85.6172
650.4	-85.6173
650.5	-85.6173
650.6	-85.6174
650.7	-85.6175
650.8	-85.6176
650.9	-85.6176
651	-85.6177
651.1	-85.6178
651.2	-85.6179
651.3	-85.6179
651.4	-85.618
651.5	-85.6181
651.6	-85.6182
651.7	-85.6182
651.8	-85.6183
651.9	-85.6184
652	-85.6185
652.1	-85.6185
652.2	-85.6186
652.3	-85.6187
652.4	-85.6188
652.5	-85.6188
652.6	-85.6189
652.7	-85.619
652.8	-85.6191
652.9	-85.6191
653	-85.6192
653.1	-85.6193
653.2	-85.6193
653.3	-85.6194
653.4	-85.6195
653.5	-85.6196
653.6	-85.6196
653.7	-85.6197
653.8	-85.6198
653.9	-85.6199
654	-85.6199
654.1	-85.62
654.2	-85.6201
654.3	-85.6202
654.4	-85.6202
654.5	-85.6203
654.6	-85.6204
654.7	-85.6205
654.8	-85.6205
654.9	-85.6206
655	-85.6207
655.1	-85.6207
655.2	-85.6208
655.3	-85.6209
655.4	-85.621
655.5	-85.621
655.6	-85.6211
655.7	-85.6212
655.8	-85.6213
655.9	-85.6213
656	-85.6214
656.1	-85.6215
656.2	-85.6216
656.3	-85.6216
656.4	-85.6217
656.5	-85.6218
656.6	-85.6218
656.7	-85.6219
656.8	-85.622
656.9	-85.6221
657	-85.6221
657.1	-85.6222
657.2	-85.6223
657.3	-85.6224
657.4	-85.6224
657.5	-85.6225
657.6	-85.6226
657.7	-85.6226
657.8	-85.6227
657.9	-85.6228
658	-85.6229
658.1	-85.6229
658.2	-85.623
658.3	-85.6231
658.4	-85.6232
658.5	-85.6232
658.6	-85.6233
658.7	-85.6234
658.8	-85.6234
658.9	-85.6235
659	-85.6236
659.1	-85.6237
659.2	-85.6237
659.3	-85.6238
659.4	-85.6239
659.5	-85.6239
659.6	-85.624
659.7	-85.6241
659.8	-85.6242
659.9	-85.6242
660	-85.6243
660.1	-85.6244
660.2	-85.6245
660.3	-85.6245
660.4	-85.6246
660.5	-85.6247
660.6	-85.6247
660.7	-85.6248
660.8	-85.6249
660.9	-85.625
661	-85.625
661.1	-85.6251
661.2	-85.6252
661.3	-85.6252
661.4	-85.6253
661.5	-85.6254
661.6	-85.6255
661.7	-85.6255
661.8	-85.6256
661.9	-85.6257
662	-85.6257
662.1	-85.6258
662.2	-85.6259
662.3	-85.626
662.4	-85.626
662.5	-85.6261
662.6	-85.6262
662.7	-85.6262
662.8	-85.6263
662.9	-85.6264
663	-85.6264
663.1	-85.6265
663.2	-85.6266
663.3	-85.6267
663.4	-85.6267
663.5	-85.6268
663.6	-85.6269
663.7	-85.6269
663.8	-85.627
663.9	-85.6271
664	-85.6272
664.1	-85.6272
664.2	-85.6273
664.3	-85.6274
664.4	-85.6274
664.5	-85.6275
664.6	-85.6276
664.7	-85.6276
664.8	-85.6277
664.9	-85.6278
665	-85.6279
665.1	-85.6279
665.2	-85.628
665.3	-85.6281
665.4	-85.6281
665.5	-85.6282
665.6	-85.6283
665.7	-85.6284
665.8	-85.6284
665.9	-85.6285
666	-85.6286
666.1	-85.6286
666.2	-85.6287
666.3	-85.6288
666.4	-85.6288
666.5	-85.6289
666.6	-85.629
666.7	-85.629
666.8	-85.6291
666.9	-85.6292
667	-85.6293
667.1	-85.6293
667.2	-85.6294
667.3	-85.6295
667.4	-85.6295
667.5	-85.6296
667.6	-85.6297
667.7	-85.6297
667.8	-85.6298
667.9	-85.6299
668	-85.63
668.1	-85.63
668.2	-85.6301
668.3	-85.6302
668.4	-85.6302
668.5	-85.6303
668.6	-85.6304
668.7	-85.6304
668.8	-85.6305
668.9	-85.6306
669	-85.6306
669.1	-85.6307
669.2	-85.6308
669.3	-85.6309
669.4	-85.6309
669.5	-85.631
669.6	-85.6311
669.7	-85.6311
669.8	-85.6312
669.9	-85.6313
670	-85.6313
670.1	-85.6314
670.2	-85.6315
670.3	-85.6315
670.4	-85.6316
670.5	-85.6317
670.6	-85.6317
670.7	-85.6318
670.8	-85.6319
670.9	-85.6319
671	-85.632
671.1	-85.6321
671.2	-85.6322
671.3	-85.6322
671.4	-85.6323
671.5	-85.6324
671.6	-85.6324
671.7	-85.6325
671.8	-85.6326
671.9	-85.6326
672	-85.6327
672.1	-85.6328
672.2	-85.6328
672.3	-85.6329
672.4	-85.633
672.5	-85.633
672.6	-85.6331
672.7	-85.6332
672.8	-85.6332
672.9	-85.6333
673	-85.6334
673.1	-85.6334
673.2	-85.6335
673.3	-85.6336
673.4	-85.6336
673.5	-85.6337
673.6	-85.6338
673.7	-85.6339
673.8	-85.6339
673.9	-85.634
674	-85.6341
674.1	-85.6341
674.2	-85.6342
674.3	-85.6343
674.4	-85.6343
674.5	-85.6344
674.6	-85.6345
674.7	-85.6345
674.8	-85.6346
674.9	-85.6347
675	-85.6347
675.1	-85.6348
675.2	-85.6349
675.3	-85.6349
675.4	-85.635
675.5	-85.6351
675.6	-85.6351
675.7	-85.6352
675.8	-85.6353
675.9	-85.6353
676	-85.6354
676.1	-85.6355
676.2	-85.6355
676.3	-85.6356
676.4	-85.6357
676.5	-85.6357
676.6	-85.6358
676.7	-85.6359
676.8	-85.6359
676.9	-85.636
677	-85.6361
677.1	-85.6361
677.2	-85.6362
677.3	-85.6363
677.4	-85.6363
677.5	-85.6364
677.6	-85.6365
677.7	-85.6365
677.8	-85.6366
677.9	-85.6367
678	-85.6367
678.1	-85.6368
678.2	-85.6369
678.3	-85.6369
678.4	-85.637
678.5	-85.6371
678.6	-85.6371
678.7	-85.6372
678.8	-85.6373
678.9	-85.6373
679	-85.6374
679.1	-85.6375
679.2	-85.6375
679.3	-85.6376
679.4	-85.6377
679.5	-85.6377
679.6	-85.6378
679.7	-85.6378
679.8	-85.6379
679.9	-85.638
680	-85.638
680.1	-85.6381
680.2	-85.6382
680.3	-85.6382
680.4	-85.6383
680.5	-85.6384
680.6	-85.6384
680.7	-85.6385
680.8	-85.6386
680.9	-85.6386
681	-85.6387
681.1	-85.6388
681.2	-85.6388
681.3	-85.6389
681.4	-85.639
681.5	-85.639
681.6	-85.6391
681.7	-85.6392
681.8	-85.6392
681.9	-85.6393
682	-85.6394
682.1	-85.6394
682.2	-85.6395
682.3	-85.6395
682.4	-85.6396
682.5	-85.6397
682.6	-85.6397
682.7	-85.6398
682.8	-85.6399
682.9	-85.6399
683	-85.64
683.1	-85.6401
683.2	-85.6401
683.3	-85.6402
683.4	-85.6403
683.5	-85.6403
683.6	-85.6404
683.7	-85.6405
683.8	-85.6405
683.9	-85.6406
684	-85.6406
684.1	-85.6407
684.2	-85.6408
684.3	-85.6408
684.4	-85.6409
684.5	-85.641
684.6	-85.641
684.7	-85.6411
684.8	-85.6412
684.9	-85.6412
685	-85.6413
685.1	-85.6414
685.2	-85.6414
685.3	-85.6415
685.4	-85.6415
685.5	-85.6416
685.6	-85.6417
685.7	-85.6417
685.8	-85.6418
685.9	-85.6419
686	-85.6419
686.1	-85.642
686.2	-85.6421
686.3	-85.6421
686.4	-85.6422
686.5	-85.6422
686.6	-85.6423
686.7	-85.6424
686.8	-85.6424
686.9	-85.6425
687	-85.6426
687.1	-85.6426
687.2	-85.6427
687.3	-85.6428
687.4	-85.6428
687.5	-85.6429
687.6	-85.6429
687.7	-85.643
687.8	-85.6431
687.9	-85.6431
688	-85.6432
688.1	-85.6433
688.2	-85.6433
688.3	-85.6434
688.4	-85.6435
688.5	-85.6435
688.6	-85.6436
688.7	-85.6436
688.8	-85.6437
688.9	-85.6438
689	-85.6438
689.1	-85.6439
689.2	-85.644
689.3	-85.644
689.4	-85.6441
689.5	-85.6441
689.6	-85.6442
689.7	-85.6443
689.8	-85.6443
689.9	-85.6444
690	-85.6445
690.1	-85.6445
690.2	-85.6446
690.3	-85.6447
690.4	-85.6447
690.5	-85.6448
690.6	-85.6448
690.7	-85.6449
690.8	-85.645
690.9	-85.645
691	-85.6451
691.1	-85.6452
691.2	-85.6452
691.3	-85.6453
691.4	-85.6453
691.5	-85.6454
691.6	-85.6455
691.7	-85.6455
691.8	-85.6456
691.9	-85.6456
692	-85.6457
692.1	-85.6458
692.2	-85.6458
692.3	-85.6459
692.4	-85.646
692.5	-85.646
692.6	-85.6461
692.7	-85.6461
692.8	-85.6462
692.9	-85.6463
693	-85.6463
693.1	-85.6464
693.2	-85.6465
693.3	-85.6465
693.4	-85.6466
693.5	-85.6466
693.6	-85.6467
693.7	-85.6468
693.8	-85.6468
693.9	-85.6469
694	-85.647
694.1	-85.647
694.2	-85.6471
694.3	-85.6471
694.4	-85.6472
694.5	-85.6473
694.6	-85.6473
694.7	-85.6474
694.8	-85.6474
694.9	-85.6475
695	-85.6476
695.1	-85.6476
695.2	-85.6477
695.3	-85.6477
695.4	-85.6478
695.5	-85.6479
695.6	-85.6479
695.7	-85.648
695.8	-85.6481
695.9	-85.6481
696	-85.6482
696.1	-85.6482
696.2	-85.6483
696.3	-85.6484
696.4	-85.6484
696.5	-85.6485
696.6	-85.6485
696.7	-85.6486
696.8	-85.6487
696.9	-85.6487
697	-85.6488
697.1	-85.6488
697.2	-85.6489
697.3	-85.649
697.4	-85.649
697.5	-85.6491
697.6	-85.6492
697.7	-85.6492
697.8	-85.6493
697.9	-85.6493
698	-85.6494
698.1	-85.6495
698.2	-85.6495
698.3	-85.6496
698.4	-85.6496
698.5	-85.6497
698.6	-85.6498
698.7	-85.6498
698.8	-85.6499
698.9	-85.6499
699	-85.65
699.1	-85.6501
699.2	-85.6501
699.3	-85.6502
699.4	-85.6502
699.5	-85.6503
699.6	-85.6504
699.7	-85.6504
699.8	-85.6505
699.9	-85.6505
700	-85.6506
700.1	-85.6507
700.2	-85.6507
700.3	-85.6508
700.4	-85.6508
700.5	-85.6509
700.6	-85.651
700.7	-85.651
700.8	-85.6511
700.9	-85.6511
701	-85.6512
701.1	-85.6513
701.2	-85.6513
701.3	-85.6514
701.4	-85.6514
701.5	-85.6515
701.6	-85.6516
701.7	-85.6516
701.8	-85.6517
701.9	-85.6517
702	-85.6518
702.1	-85.6519
702.2	-85.6519
702.3	-85.652
702.4	-85.652
702.5	-85.6521
702.6	-85.6522
702.7	-85.6522
702.8	-85.6523
702.9	-85.6523
703	-85.6524
703.1	-85.6524
703.2	-85.6525
703.3	-85.6526
703.4	-85.6526
703.5	-85.6527
703.6	-85.6527
703.7	-85.6528
703.8	-85.6529
703.9	-85.6529
704	-85.653
704.1	-85.653
704.2	-85.6531
704.3	-85.6532
704.4	-85.6532
704.5	-85.6533
704.6	-85.6533
704.7	-85.6534
704.8	-85.6534
704.9	-85.6535
705	-85.6536
705.1	-85.6536
705.2	-85.6537
705.3	-85.6537
705.4	-85.6538
705.5	-85.6539
705.6	-85.6539
705.7	-85.654
705.8	-85.654
705.9	-85.6541
706	-85.6542
706.1	-85.6542
706.2	-85.6543
706.3	-85.6543
706.4	-85.6544
706.5	-85.6544
706.6	-85.6545
706.7	-85.6546
706.8	-85.6546
706.9	-85.6547
707	-85.6547
707.1	-85.6548
707.2	-85.6549
707.3	-85.6549
707.4	-85.655
707.5	-85.655
707.6	-85.6551
707.7	-85.6551
707.8	-85.6552
707.9	-85.6553
708	-85.6553
708.1	-85.6554
708.2	-85.6554
708.3	-85.6555
708.4	-85.6555
708.5	-85.6556
708.6	-85.6557
708.7	-85.6557
708.8	-85.6558
708.9	-85.6558
709	-85.6559
709.1	-85.656
709.2	-85.656
709.3	-85.6561
709.4	-85.6561
709.5	-85.6562
709.6	-85.6562
709.7	-85.6563
709.8	-85.6564
709.9	-85.6564
710	-85.6565
710.1	-85.6565
710.2	-85.6566
710.3	-85.6566
710.4	-85.6567
710.5	-85.6568
710.6	-85.6568
710.7	-85.6569
710.8	-85.6569
710.9	-85.657
711	-85.657
711.1	-85.6571
711.2	-85.6572
711.3	-85.6572
711.4	-85.6573
711.5	-85.6573
711.6	-85.6574
711.7	-85.6574
711.8	-85.6575
711.9	-85.6576
712	-85.6576
712.1	-85.6577
712.2	-85.6577
712.3	-85.6578
712.4	-85.6578
712.5	-85.6579
712.6	-85.658
712.7	-85.658
712.8	-85.6581
712.9	-85.6581
713	-85.6582
713.1	-85.6582
713.2	-85.6583
713.3	-85.6583
713.4	-85.6584
713.5	-85.6585
713.6	-85.6585
713.7	-85.6586
713.8	-85.6586
713.9	-85.6587
714	-85.6587
714.1	-85.6588
714.2	-85.6589
714.3	-85.6589
714.4	-85.659
714.5	-85.659
714.6	-85.6591
714.7	-85.6591
714.8	-85.6592
714.9	-85.6592
715	-85.6593
715.1	-85.6594
715.2	-85.6594
715.3	-85.6595
715.4	-85.6595
715.5	-85.6596
715.6	-85.6596
715.7	-85.6597
715.8	-85.6598
715.9	-85.6598
716	-85.6599
716.1	-85.6599
716.2	-85.66
716.3	-85.66
716.4	-85.6601
716.5	-85.6601
716.6	-85.6602
716.7	-85.6603
716.8	-85.6603
716.9	-85.6604
717	-85.6604
717.1	-85.6605
717.2	-85.6605
717.3	-85.6606
717.4	-85.6606
717.5	-85.6607
717.6	-85.6608
717.7	-85.6608
717.8	-85.6609
717.9	-85.6609
718	-85.661
718.1	-85.661
718.2	-85.6611
718.3	-85.6611
718.4	-85.6612
718.5	-85.6613
718.6	-85.6613
718.7	-85.6614
718.8	-85.6614
718.9	-85.6615
719	-85.6615
719.1	-85.6616
719.2	-85.6616
719.3	-85.6617
719.4	-85.6618
719.5	-85.6618
719.6	-85.6619
719.7	-85.6619
719.8	-85.662
719.9	-85.662
720	-85.6621
720.1	-85.6621
720.2	-85.6622
720.3	-85.6622
720.4	-85.6623
720.5	-85.6624
720.6	-85.6624
720.7	-85.6625
720.8	-85.6625
720.9	-85.6626
721	-85.6626
721.1	-85.6627
721.2	-85.6627
721.3	-85.6628
721.4	-85.6628
721.5	-85.6629
721.6	-85.663
721.7	-85.663
721.8	-85.6631
721.9	-85.6631
722	-85.6632
722.1	-85.6632
722.2	-85.6633
722.3	-85.6633
722.4	-85.6634
722.5	-85.6634
722.6	-85.6635
722.7	-85.6636
722.8	-85.6636
722.9	-85.6637
723	-85.6637
723.1	-85.6638
723.2	-85.6638
723.3	-85.6639
723.4	-85.6639
723.5	-85.664
723.6	-85.664
723.7	-85.6641
723.8	-85.6641
723.9	-85.6642
724	-85.6643
724.1	-85.6643
724.2	-85.6644
724.3	-85.6644
724.4	-85.6645
724.5	-85.6645
724.6	-85.6646
724.7	-85.6646
724.8	-85.6647
724.9	-85.6647
725	-85.6648
725.1	-85.6648
725.2	-85.6649
725.3	-85.665
725.4	-85.665
725.5	-85.6651
725.6	-85.6651
725.7	-85.6652
725.8	-85.6652
725.9	-85.6653
726	-85.6653
726.1	-85.6654
726.2	-85.6654
726.3	-85.6655
726.4	-85.6655
726.5	-85.6656
726.6	-85.6657
726.7	-85.6657
726.8	-85.6658
726.9	-85.6658
727	-85.6659
727.1	-85.6659
727.2	-85.666
727.3	-85.666
727.4	-85.6661
727.5	-85.6661
727.6	-85.6662
727.7	-85.6662
727.8	-85.6663
727.9	-85.6663
728	-85.6664
728.1	-85.6664
728.2	-85.6665
728.3	-85.6666
728.4	-85.6666
728.5	-85.6667
728.6	-85.6667
728.7	-85.6668
728.8	-85.6668
728.9	-85.6669
729	-85.6669
729.1	-85.667
729.2	-85.667
729.3	-85.6671
729.4	-85.6671
729.5	-85.6672
729.6	-85.6672
729.7	-85.6673
729.8	-85.6673
729.9	-85.6674
730	-85.6675
730.1	-85.6675
730.2	-85.6676
730.3	-85.6676
730.4	-85.6677
730.5	-85.6677
730.6	-85.6678
730.7	-85.6678
730.8	-85.6679
730.9	-85.6679
731	-85.668
731.1	-85.668
731.2	-85.6681
731.3	-85.6681
731.4	-85.6682
731.5	-85.6682
731.6	-85.6683
731.7	-85.6683
731.8	-85.6684
731.9	-85.6684
732	-85.6685
732.1	-85.6685
732.2	-85.6686
732.3	-85.6687
732.4	-85.6687
732.5	-85.6688
732.6	-85.6688
732.7	-85.6689
732.8	-85.6689
732.9	-85.669
733	-85.669
733.1	-85.6691
733.2	-85.6691
733.3	-85.6692
733.4	-85.6692
733.5	-85.6693
733.6	-85.6693
733.7	-85.6694
733.8	-85.6694
733.9	-85.6695
734	-85.6695
734.1	-85.6696
734.2	-85.6696
734.3	-85.6697
734.4	-85.6697
734.5	-85.6698
734.6	-85.6698
734.7	-85.6699
734.8	-85.6699
734.9	-85.67
735	-85.67
735.1	-85.6701
735.2	-85.6702
735.3	-85.6702
735.4	-85.6703
735.5	-85.6703
735.6	-85.6704
735.7	-85.6704
735.8	-85.6705
735.9	-85.6705
736	-85.6706
736.1	-85.6706
736.2	-85.6707
736.3	-85.6707
736.4	-85.6708
736.5	-85.6708
736.6	-85.6709
736.7	-85.6709
736.8	-85.671
736.9	-85.671
737	-85.6711
737.1	-85.6711
737.2	-85.6712
737.3	-85.6712
737.4	-85.6713
737.5	-85.6713
737.6	-85.6714
737.7	-85.6714
737.8	-85.6715
737.9	-85.6715
738	-85.6716
738.1	-85.6716
738.2	-85.6717
738.3	-85.6717
738.4	-85.6718
738.5	-85.6718
738.6	-85.6719
738.7	-85.6719
738.8	-85.672
738.9	-85.672
739	-85.6721
739.1	-85.6721
739.2	-85.6722
739.3	-85.6722
739.4	-85.6723
739.5	-85.6723
739.6	-85.6724
739.7	-85.6724
739.8	-85.6725
739.9	-85.6725
740	-85.6726
740.1	-85.6726
740.2	-85.6727
740.3	-85.6727
740.4	-85.6728
740.5	-85.6728
740.6	-85.6729
740.7	-85.6729
740.8	-85.673
740.9	-85.673
741	-85.6731
741.1	-85.6731
741.2	-85.6732
741.3	-85.6732
741.4	-85.6733
741.5	-85.6733
741.6	-85.6734
741.7	-85.6734
741.8	-85.6735
741.9	-85.6735
742	-85.6736
742.1	-85.6736
742.2	-85.6737
742.3	-85.6737
742.4	-85.6738
742.5	-85.6738
742.6	-85.6739
742.7	-85.6739
742.8	-85.674
742.9	-85.674
743	-85.6741
743.1	-85.6741
743.2	-85.6742
743.3	-85.6742
743.4	-85.6743
743.5	-85.6743
743.6	-85.6744
743.7	-85.6744
743.8	-85.6745
743.9	-85.6745
744	-85.6746
744.1	-85.6746
744.2	-85.6747
744.3	-85.6747
744.4	-85.6748
744.5	-85.6748
744.6	-85.6749
744.7	-85.6749
744.8	-85.675
744.9	-85.675
745	-85.6751
745.1	-85.6751
745.2	-85.6752
745.3	-85.6752
745.4	-85.6753
745.5	-85.6753
745.6	-85.6754
745.7	-85.6754
745.8	-85.6755
745.9	-85.6755
746	-85.6756
746.1	-85.6756
746.2	-85.6757
746.3	-85.6757
746.4	-85.6758
746.5	-85.6758
746.6	-85.6759
746.7	-85.6759
746.8	-85.676
746.9	-85.676
747	-85.6761
747.1	-85.6761
747.2	-85.6761
747.3	-85.6762
747.4	-85.6762
747.5	-85.6763
747.6	-85.6763
747.7	-85.6764
747.8	-85.6764
747.9	-85.6765
748	-85.6765
748.1	-85.6766
748.2	-85.6766
748.3	-85.6767
748.4	-85.6767
748.5	-85.6768
748.6	-85.6768
748.7	-85.6769
748.8	-85.6769
748.9	-85.677
749	-85.677
749.1	-85.6771
749.2	-85.6771
749.3	-85.6772
749.4	-85.6772
749.5	-85.6773
749.6	-85.6773
749.7	-85.6774
749.8	-85.6774
749.9	-85.6775
750	-85.6775
750.1	-85.6776
750.2	-85.6776
750.3	-85.6776
750.4	-85.6777
750.5	-85.6777
750.6	-85.6778
750.7	-85.6778
750.8	-85.6779
750.9	-85.6779
751	-85.678
751.1	-85.678
751.2	-85.6781
751.3	-85.6781
751.4	-85.6782
751.5	-85.6782
751.6	-85.6783
751.7	-85.6783
751.8	-85.6784
751.9	-85.6784
752	-85.6785
752.1	-85.6785
752.2	-85.6786
752.3	-85.6786
752.4	-85.6787
752.5	-85.6787
752.6	-85.6787
752.7	-85.6788
752.8	-85.6788
752.9	-85.6789
753	-85.6789
753.1	-85.679
753.2	-85.679
753.3	-85.6791
753.4	-85.6791
753.5	-85.6792
753.6	-85.6792
753.7	-85.6793
753.8	-85.6793
753.9	-85.6794
754	-85.6794
754.1	-85.6795
754.2	-85.6795
754.3	-85.6796
754.4	-85.6796
754.5	-85.6796
754.6	-85.6797
754.7	-85.6797
754.8	-85.6798
754.9	-85.6798
755	-85.6799
755.1	-85.6799
755.2	-85.68
755.3	-85.68
755.4	-85.6801
755.5	-85.6801
755.6	-85.6802
755.7	-85.6802
755.8	-85.6803
755.9	-85.6803
756	-85.6804
756.1	-85.6804
756.2	-85.6804
756.3	-85.6805
756.4	-85.6805
756.5	-85.6806
756.6	-85.6806
756.7	-85.6807
756.8	-85.6807
756.9	-85.6808
757	-85.6808
757.1	-85.6809
757.2	-85.6809
757.3	-85.681
757.4	-85.681
757.5	-85.6811
757.6	-85.6811
757.7	-85.6811
757.8	-85.6812
757.9	-85.6812
758	-85.6813
758.1	-85.6813
758.2	-85.6814
758.3	-85.6814
758.4	-85.6815
758.5	-85.6815
758.6	-85.6816
758.7	-85.6816
758.8	-85.6817
758.9	-85.6817
759	-85.6817
759.1	-85.6818
759.2	-85.6818
759.3	-85.6819
759.4	-85.6819
759.5	-85.682
759.6	-85.682
759.7	-85.6821
759.8	-85.6821
759.9	-85.6822
760	-85.6822
760.1	-85.6823
760.2	-85.6823
760.3	-85.6823
760.4	-85.6824
760.5	-85.6824
760.6	-85.6825
760.7	-85.6825
760.8	-85.6826
760.9	-85.6826
761	-85.6827
761.1	-85.6827
761.2	-85.6828
761.3	-85.6828
761.4	-85.6828
761.5	-85.6829
761.6	-85.6829
761.7	-85.683
761.8	-85.683
761.9	-85.6831
762	-85.6831
762.1	-85.6832
762.2	-85.6832
762.3	-85.6833
762.4	-85.6833
762.5	-85.6834
762.6	-85.6834
762.7	-85.6834
762.8	-85.6835
762.9	-85.6835
763	-85.6836
763.1	-85.6836
763.2	-85.6837
763.3	-85.6837
763.4	-85.6838
763.5	-85.6838
763.6	-85.6839
763.7	-85.6839
763.8	-85.6839
763.9	-85.684
764	-85.684
764.1	-85.6841
764.2	-85.6841
764.3	-85.6842
764.4	-85.6842
764.5	-85.6843
764.6	-85.6843
764.7	-85.6843
764.8	-85.6844
764.9	-85.6844
765	-85.6845
765.1	-85.6845
765.2	-85.6846
765.3	-85.6846
765.4	-85.6847
765.5	-85.6847
765.6	-85.6848
765.7	-85.6848
765.8	-85.6848
765.9	-85.6849
766	-85.6849
766.1	-85.685
766.2	-85.685
766.3	-85.6851
766.4	-85.6851
766.5	-85.6852
766.6	-85.6852
766.7	-85.6852
766.8	-85.6853
766.9	-85.6853
767	-85.6854
767.1	-85.6854
767.2	-85.6855
767.3	-85.6855
767.4	-85.6856
767.5	-85.6856
767.6	-85.6856
767.7	-85.6857
767.8	-85.6857
767.9	-85.6858
768	-85.6858
768.1	-85.6859
768.2	-85.6859
768.3	-85.686
768.4	-85.686
768.5	-85.686
768.6	-85.6861
768.7	-85.6861
768.8	-85.6862
768.9	-85.6862
769	-85.6863
769.1	-85.6863
769.2	-85.6864
769.3	-85.6864
769.4	-85.6864
769.5	-85.6865
769.6	-85.6865
769.7	-85.6866
769.8	-85.6866
769.9	-85.6867
770	-85.6867
770.1	-85.6868
770.2	-85.6868
770.3	-85.6868
770.4	-85.6869
770.5	-85.6869
770.6	-85.687
770.7	-85.687
770.8	-85.6871
770.9	-85.6871
771	-85.6871
771.1	-85.6872
771.2	-85.6872
771.3	-85.6873
771.4	-85.6873
771.5	-85.6874
771.6	-85.6874
771.7	-85.6875
771.8	-85.6875
771.9	-85.6875
772	-85.6876
772.1	-85.6876
772.2	-85.6877
772.3	-85.6877
772.4	-85.6878
772.5	-85.6878
772.6	-85.6878
772.7	-85.6879
772.8	-85.6879
772.9	-85.688
773	-85.688
773.1	-85.6881
773.2	-85.6881
773.3	-85.6882
773.4	-85.6882
773.5	-85.6882
773.6	-85.6883
773.7	-85.6883
773.8	-85.6884
773.9	-85.6884
774	-85.6885
774.1	-85.6885
774.2	-85.6885
774.3	-85.6886
774.4	-85.6886
774.5	-85.6887
774.6	-85.6887
774.7	-85.6888
774.8	-85.6888
774.9	-85.6888
775	-85.6889
775.1	-85.6889
775.2	-85.689
775.3	-85.689
775.4	-85.6891
775.5	-85.6891
775.6	-85.6891
775.7	-85.6892
775.8	-85.6892
775.9	-85.6893
776	-85.6893
776.1	-85.6894
776.2	-85.6894
776.3	-85.6894
776.4	-85.6895
776.5	-85.6895
776.6	-85.6896
776.7	-85.6896
776.8	-85.6897
776.9	-85.6897
777	-85.6897
777.1	-85.6898
777.2	-85.6898
777.3	-85.6899
777.4	-85.6899
777.5	-85.69
777.6	-85.69
777.7	-85.69
777.8	-85.6901
777.9	-85.6901
778	-85.6902
778.1	-85.6902
778.2	-85.6903
778.3	-85.6903
778.4	-85.6903
778.5	-85.6904
778.6	-85.6904
778.7	-85.6905
778.8	-85.6905
778.9	-85.6906
779	-85.6906
779.1	-85.6906
779.2	-85.6907
779.3	-85.6907
779.4	-85.6908
779.5	-85.6908
779.6	-85.6909
779.7	-85.6909
779.8	-85.6909
779.9	-85.691
780	-85.691
780.1	-85.6911
780.2	-85.6911
780.3	-85.6911
780.4	-85.6912
780.5	-85.6912
780.6	-85.6913
780.7	-85.6913
780.8	-85.6914
780.9	-85.6914
781	-85.6914
781.1	-85.6915
781.2	-85.6915
781.3	-85.6916
781.4	-85.6916
781.5	-85.6916
781.6	-85.6917
781.7	-85.6917
781.8	-85.6918
781.9	-85.6918
782	-85.6919
782.1	-85.6919
782.2	-85.6919
782.3	-85.692
782.4	-85.692
782.5	-85.6921
782.6	-85.6921
782.7	-85.6922
782.8	-85.6922
782.9	-85.6922
783	-85.6923
783.1	-85.6923
783.2	-85.6924
783.3	-85.6924
783.4	-85.6924
783.5	-85.6925
783.6	-85.6925
783.7	-85.6926
783.8	-85.6926
783.9	-85.6926
784	-85.6927
784.1	-85.6927
784.2	-85.6928
784.3	-85.6928
784.4	-85.6929
784.5	-85.6929
784.6	-85.6929
784.7	-85.693
784.8	-85.693
784.9	-85.6931
785	-85.6931
785.1	-85.6931
785.2	-85.6932
785.3	-85.6932
785.4	-85.6933
785.5	-85.6933
785.6	-85.6934
785.7	-85.6934
785.8	-85.6934
785.9	-85.6935
786	-85.6935
786.1	-85.6936
786.2	-85.6936
786.3	-85.6936
786.4	-85.6937
786.5	-85.6937
786.6	-85.6938
786.7	-85.6938
786.8	-85.6938
786.9	-85.6939
787	-85.6939
787.1	-85.694
787.2	-85.694
787.3	-85.694
787.4	-85.6941
787.5	-85.6941
787.6	-85.6942
787.7	-85.6942
787.8	-85.6943
787.9	-85.6943
788	-85.6943
788.1	-85.6944
788.2	-85.6944
788.3	-85.6945
788.4	-85.6945
788.5	-85.6945
788.6	-85.6946
788.7	-85.6946
788.8	-85.6947
788.9	-85.6947
789	-85.6947
789.1	-85.6948
789.2	-85.6948
789.3	-85.6949
789.4	-85.6949
789.5	-85.6949
789.6	-85.695
789.7	-85.695
789.8	-85.6951
789.9	-85.6951
790	-85.6951
790.1	-85.6952
790.2	-85.6952
790.3	-85.6953
790.4	-85.6953
790.5	-85.6953
790.6	-85.6954
790.7	-85.6954
790.8	-85.6955
790.9	-85.6955
791	-85.6955
791.1	-85.6956
791.2	-85.6956
791.3	-85.6957
791.4	-85.6957
791.5	-85.6957
791.6	-85.6958
791.7	-85.6958
791.8	-85.6959
791.9	-85.6959
792	-85.6959
792.1	-85.696
792.2	-85.696
792.3	-85.6961
792.4	-85.6961
792.5	-85.6961
792.6	-85.6962
792.7	-85.6962
792.8	-85.6963
792.9	-85.6963
793	-85.6963
793.1	-85.6964
793.2	-85.6964
793.3	-85.6965
793.4	-85.6965
793.5	-85.6965
793.6	-85.6966
793.7	-85.6966
793.8	-85.6967
793.9	-85.6967
794	-85.6967
794.1	-85.6968
794.2	-85.6968
794.3	-85.6969
794.4	-85.6969
794.5	-85.6969
794.6	-85.697
794.7	-85.697
794.8	-85.6971
794.9	-85.6971
795	-85.6971
795.1	-85.6972
795.2	-85.6972
795.3	-85.6973
795.4	-85.6973
795.5	-85.6973
795.6	-85.6974
795.7	-85.6974
795.8	-85.6975
795.9	-85.6975
796	-85.6975
796.1	-85.6976
796.2	-85.6976
796.3	-85.6977
796.4	-85.6977
796.5	-85.6977
796.6	-85.6978
796.7	-85.6978
796.8	-85.6978
796.9	-85.6979
797	-85.6979
797.1	-85.698
797.2	-85.698
797.3	-85.698
797.4	-85.6981
797.5	-85.6981
797.6	-85.6982
797.7	-85.6982
797.8	-85.6982
797.9	-85.6983
798	-85.6983
798.1	-85.6984
798.2	-85.6984
798.3	-85.6984
798.4	-85.6985
798.5	-85.6985
798.6	-85.6986
798.7	-85.6986
798.8	-85.6986
798.9	-85.6987
799	-85.6987
799.1	-85.6987
799.2	-85.6988
799.3	-85.6988
799.4	-85.6989
799.5	-85.6989
799.6	-85.6989
799.7	-85.699
799.8	-85.699
799.9	-85.6991
800	-85.6991
800.1	-85.6991
800.2	-85.6992
800.3	-85.6992
800.4	-85.6992
800.5	-85.6993
800.6	-85.6993
800.7	-85.6994
800.8	-85.6994
800.9	-85.6994
801	-85.6995
801.1	-85.6995
801.2	-85.6996
801.3	-85.6996
801.4	-85.6996
801.5	-85.6997
801.6	-85.6997
801.7	-85.6997
801.8	-85.6998
801.9	-85.6998
802	-85.6999
802.1	-85.6999
802.2	-85.6999
802.3	-85.7
802.4	-85.7
802.5	-85.7001
802.6	-85.7001
802.7	-85.7001
802.8	-85.7002
802.9	-85.7002
803	-85.7002
803.1	-85.7003
803.2	-85.7003
803.3	-85.7004
803.4	-85.7004
803.5	-85.7004
803.6	-85.7005
803.7	-85.7005
803.8	-85.7005
803.9	-85.7006
804	-85.7006
804.1	-85.7007
804.2	-85.7007
804.3	-85.7007
804.4	-85.7008
804.5	-85.7008
804.6	-85.7009
804.7	-85.7009
804.8	-85.7009
804.9	-85.701
805	-85.701
805.1	-85.701
805.2	-85.7011
805.3	-85.7011
805.4	-85.7012
805.5	-85.7012
805.6	-85.7012
805.7	-85.7013
805.8	-85.7013
805.9	-85.7013
806	-85.7014
806.1	-85.7014
806.2	-85.7015
806.3	-85.7015
806.4	-85.7015
806.5	-85.7016
806.6	-85.7016
806.7	-85.7016
806.8	-85.7017
806.9	-85.7017
807	-85.7018
807.1	-85.7018
807.2	-85.7018
807.3	-85.7019
807.4	-85.7019
807.5	-85.7019
807.6	-85.702
807.7	-85.702
807.8	-85.7021
807.9	-85.7021
808	-85.7021
808.1	-85.7022
808.2	-85.7022
808.3	-85.7022
808.4	-85.7023
808.5	-85.7023
808.6	-85.7024
808.7	-85.7024
808.8	-85.7024
808.9	-85.7025
809	-85.7025
809.1	-85.7025
809.2	-85.7026
809.3	-85.7026
809.4	-85.7027
809.5	-85.7027
809.6	-85.7027
809.7	-85.7028
809.8	-85.7028
809.9	-85.7028
810	-85.7029
810.1	-85.7029
810.2	-85.7029
810.3	-85.703
810.4	-85.703
810.5	-85.7031
810.6	-85.7031
810.7	-85.7031
810.8	-85.7032
810.9	-85.7032
811	-85.7032
811.1	-85.7033
811.2	-85.7033
811.3	-85.7034
811.4	-85.7034
811.5	-85.7034
811.6	-85.7035
811.7	-85.7035
811.8	-85.7035
811.9	-85.7036
812	-85.7036
812.1	-85.7036
812.2	-85.7037
812.3	-85.7037
812.4	-85.7038
812.5	-85.7038
812.6	-85.7038
812.7	-85.7039
812.8	-85.7039
812.9	-85.7039
813	-85.704
813.1	-85.704
813.2	-85.704
813.3	-85.7041
813.4	-85.7041
813.5	-85.7042
813.6	-85.7042
813.7	-85.7042
813.8	-85.7043
813.9	-85.7043
814	-85.7043
814.1	-85.7044
814.2	-85.7044
814.3	-85.7045
814.4	-85.7045
814.5	-85.7045
814.6	-85.7046
814.7	-85.7046
814.8	-85.7046
814.9	-85.7047
815	-85.7047
815.1	-85.7047
815.2	-85.7048
815.3	-85.7048
815.4	-85.7048
815.5	-85.7049
815.6	-85.7049
815.7	-85.705
815.8	-85.705
815.9	-85.705
816	-85.7051
816.1	-85.7051
816.2	-85.7051
816.3	-85.7052
816.4	-85.7052
816.5	-85.7052
816.6	-85.7053
816.7	-85.7053
816.8	-85.7054
816.9	-85.7054
817	-85.7054
817.1	-85.7055
817.2	-85.7055
817.3	-85.7055
817.4	-85.7056
817.5	-85.7056
817.6	-85.7056
817.7	-85.7057
817.8	-85.7057
817.9	-85.7057
818	-85.7058
818.1	-85.7058
818.2	-85.7059
818.3	-85.7059
818.4	-85.7059
818.5	-85.706
818.6	-85.706
818.7	-85.706
818.8	-85.7061
818.9	-85.7061
819	-85.7061
819.1	-85.7062
819.2	-85.7062
819.3	-85.7062
819.4	-85.7063
819.5	-85.7063
819.6	-85.7064
819.7	-85.7064
819.8	-85.7064
819.9	-85.7065
820	-85.7065
820.1	-85.7065
820.2	-85.7066
820.3	-85.7066
820.4	-85.7066
820.5	-85.7067
820.6	-85.7067
820.7	-85.7067
820.8	-85.7068
820.9	-85.7068
821	-85.7068
821.1	-85.7069
821.2	-85.7069
821.3	-85.707
821.4	-85.707
821.5	-85.707
821.6	-85.7071
821.7	-85.7071
821.8	-85.7071
821.9	-85.7072
822	-85.7072
822.1	-85.7072
822.2	-85.7073
822.3	-85.7073
822.4	-85.7073
822.5	-85.7074
822.6	-85.7074
822.7	-85.7074
822.8	-85.7075
822.9	-85.7075
823	-85.7076
823.1	-85.7076
823.2	-85.7076
823.3	-85.7077
823.4	-85.7077
823.5	-85.7077
823.6	-85.7078
823.7	-85.7078
823.8	-85.7078
823.9	-85.7079
824	-85.7079
824.1	-85.7079
824.2	-85.708
824.3	-85.708
824.4	-85.708
824.5	-85.7081
824.6	-85.7081
824.7	-85.7081
824.8	-85.7082
824.9	-85.7082
825	-85.7082
825.1	-85.7083
825.2	-85.7083
825.3	-85.7084
825.4	-85.7084
825.5	-85.7084
825.6	-85.7085
825.7	-85.7085
825.8	-85.7085
825.9	-85.7086
826	-85.7086
826.1	-85.7086
826.2	-85.7087
826.3	-85.7087
826.4	-85.7087
826.5	-85.7088
826.6	-85.7088
826.7	-85.7088
826.8	-85.7089
826.9	-85.7089
827	-85.7089
827.1	-85.709
827.2	-85.709
827.3	-85.709
827.4	-85.7091
827.5	-85.7091
827.6	-85.7091
827.7	-85.7092
827.8	-85.7092
827.9	-85.7092
828	-85.7093
828.1	-85.7093
828.2	-85.7093
828.3	-85.7094
828.4	-85.7094
828.5	-85.7095
828.6	-85.7095
828.7	-85.7095
828.8	-85.7096
828.9	-85.7096
829	-85.7096
829.1	-85.7097
829.2	-85.7097
829.3	-85.7097
829.4	-85.7098
829.5	-85.7098
829.6	-85.7098
829.7	-85.7099
829.8	-85.7099
829.9	-85.7099
830	-85.71
830.1	-85.71
830.2	-85.71
830.3	-85.7101
830.4	-85.7101
830.5	-85.7101
830.6	-85.7102
830.7	-85.7102
830.8	-85.7102
830.9	-85.7103
831	-85.7103
831.1	-85.7103
831.2	-85.7104
831.3	-85.7104
831.4	-85.7104
831.5	-85.7105
831.6	-85.7105
831.7	-85.7105
831.8	-85.7106
831.9	-85.7106
832	-85.7106
832.1	-85.7107
832.2	-85.7107
832.3	-85.7107
832.4	-85.7108
832.5	-85.7108
832.6	-85.7108
832.7	-85.7109
832.8	-85.7109
832.9	-85.7109
833	-85.711
833.1	-85.711
833.2	-85.711
833.3	-85.7111
833.4	-85.7111
833.5	-85.7111
833.6	-85.7112
833.7	-85.7112
833.8	-85.7112
833.9	-85.7113
834	-85.7113
834.1	-85.7113
834.2	-85.7114
834.3	-85.7114
834.4	-85.7114
834.5	-85.7115
834.6	-85.7115
834.7	-85.7115
834.8	-85.7116
834.9	-85.7116
835	-85.7116
835.1	-85.7117
835.2	-85.7117
835.3	-85.7117
835.4	-85.7118
835.5	-85.7118
835.6	-85.7118
835.7	-85.7119
835.8	-85.7119
835.9	-85.7119
836	-85.712
836.1	-85.712
836.2	-85.712
836.3	-85.7121
836.4	-85.7121
836.5	-85.7121
836.6	-85.7122
836.7	-85.7122
836.8	-85.7122
836.9	-85.7123
837	-85.7123
837.1	-85.7123
837.2	-85.7124
837.3	-85.7124
837.4	-85.7124
837.5	-85.7125
837.6	-85.7125
837.7	-85.7125
837.8	-85.7126
837.9	-85.7126
838	-85.7126
838.1	-85.7127
838.2	-85.7127
838.3	-85.7127
838.4	-85.7128
838.5	-85.7128
838.6	-85.7128
838.7	-85.7129
838.8	-85.7129
838.9	-85.7129
839	-85.713
839.1	-85.713
839.2	-85.713
839.3	-85.7131
839.4	-85.7131
839.5	-85.7131
839.6	-85.7132
839.7	-85.7132
839.8	-85.7132
839.9	-85.7132
840	-85.7133
840.1	-85.7133
840.2	-85.7133
840.3	-85.7134
840.4	-85.7134
840.5	-85.7134
840.6	-85.7135
840.7	-85.7135
840.8	-85.7135
840.9	-85.7136
841	-85.7136
841.1	-85.7136
841.2	-85.7137
841.3	-85.7137
841.4	-85.7137
841.5	-85.7138
841.6	-85.7138
841.7	-85.7138
841.8	-85.7139
841.9	-85.7139
842	-85.7139
842.1	-85.714
842.2	-85.714
842.3	-85.714
842.4	-85.7141
842.5	-85.7141
842.6	-85.7141
842.7	-85.7142
842.8	-85.7142
842.9	-85.7142
843	-85.7142
843.1	-85.7143
843.2	-85.7143
843.3	-85.7143
843.4	-85.7144
843.5	-85.7144
843.6	-85.7144
843.7	-85.7145
843.8	-85.7145
843.9	-85.7145
844	-85.7146
844.1	-85.7146
844.2	-85.7146
844.3	-85.7147
844.4	-85.7147
844.5	-85.7147
844.6	-85.7148
844.7	-85.7148
844.8	-85.7148
844.9	-85.7149
845	-85.7149
845.1	-85.7149
845.2	-85.715
845.3	-85.715
845.4	-85.715
845.5	-85.715
845.6	-85.7151
845.7	-85.7151
845.8	-85.7151
845.9	-85.7152
846	-85.7152
846.1	-85.7152
846.2	-85.7153
846.3	-85.7153
846.4	-85.7153
846.5	-85.7154
846.6	-85.7154
846.7	-85.7154
846.8	-85.7155
846.9	-85.7155
847	-85.7155
847.1	-85.7156
847.2	-85.7156
847.3	-85.7156
847.4	-85.7156
847.5	-85.7157
847.6	-85.7157
847.7	-85.7157
847.8	-85.7158
847.9	-85.7158
848	-85.7158
848.1	-85.7159
848.2	-85.7159
848.3	-85.7159
848.4	-85.716
848.5	-85.716
848.6	-85.716
848.7	-85.7161
848.8	-85.7161
848.9	-85.7161
849	-85.7161
849.1	-85.7162
849.2	-85.7162
849.3	-85.7162
849.4	-85.7163
849.5	-85.7163
849.6	-85.7163
849.7	-85.7164
849.8	-85.7164
849.9	-85.7164
850	-85.7165
850.1	-85.7165
850.2	-85.7165
850.3	-85.7166
850.4	-85.7166
850.5	-85.7166
850.6	-85.7166
850.7	-85.7167
850.8	-85.7167
850.9	-85.7167
851	-85.7168
851.1	-85.7168
851.2	-85.7168
851.3	-85.7169
851.4	-85.7169
851.5	-85.7169
851.6	-85.717
851.7	-85.717
851.8	-85.717
851.9	-85.717
852	-85.7171
852.1	-85.7171
852.2	-85.7171
852.3	-85.7172
852.4	-85.7172
852.5	-85.7172
852.6	-85.7173
852.7	-85.7173
852.8	-85.7173
852.9	-85.7174
853	-85.7174
853.1	-85.7174
853.2	-85.7174
853.3	-85.7175
853.4	-85.7175
853.5	-85.7175
853.6	-85.7176
853.7	-85.7176
853.8	-85.7176
853.9	-85.7177
854	-85.7177
854.1	-85.7177
854.2	-85.7178
854.3	-85.7178
854.4	-85.7178
854.5	-85.7178
854.6	-85.7179
854.7	-85.7179
854.8	-85.7179
854.9	-85.718
855	-85.718
855.1	-85.718
855.2	-85.7181
855.3	-85.7181
855.4	-85.7181
855.5	-85.7182
855.6	-85.7182
855.7	-85.7182
855.8	-85.7182
855.9	-85.7183
856	-85.7183
856.1	-85.7183
856.2	-85.7184
856.3	-85.7184
856.4	-85.7184
856.5	-85.7185
856.6	-85.7185
856.7	-85.7185
856.8	-85.7185
856.9	-85.7186
857	-85.7186
857.1	-85.7186
857.2	-85.7187
857.3	-85.7187
857.4	-85.7187
857.5	-85.7188
857.6	-85.7188
857.7	-85.7188
857.8	-85.7188
857.9	-85.7189
858	-85.7189
858.1	-85.7189
858.2	-85.719
858.3	-85.719
858.4	-85.719
858.5	-85.7191
858.6	-85.7191
858.7	-85.7191
858.8	-85.7191
858.9	-85.7192
859	-85.7192
859.1	-85.7192
859.2	-85.7193
859.3	-85.7193
859.4	-85.7193
859.5	-85.7194
859.6	-85.7194
859.7	-85.7194
859.8	-85.7194
859.9	-85.7195
860	-85.7195
860.1	-85.7195
860.2	-85.7196
860.3	-85.7196
860.4	-85.7196
860.5	-85.7197
860.6	-85.7197
860.7	-85.7197
860.8	-85.7197
860.9	-85.7198
861	-85.7198
861.1	-85.7198
861.2	-85.7199
861.3	-85.7199
861.4	-85.7199
861.5	-85.72
861.6	-85.72
861.7	-85.72
861.8	-85.72
861.9	-85.7201
862	-85.7201
862.1	-85.7201
862.2	-85.7202
862.3	-85.7202
862.4	-85.7202
862.5	-85.7202
862.6	-85.7203
862.7	-85.7203
862.8	-85.7203
862.9	-85.7204
863	-85.7204
863.1	-85.7204
863.2	-85.7205
863.3	-85.7205
863.4	-85.7205
863.5	-85.7205
863.6	-85.7206
863.7	-85.7206
863.8	-85.7206
863.9	-85.7207
864	-85.7207
864.1	-85.7207
864.2	-85.7207
864.3	-85.7208
864.4	-85.7208
864.5	-85.7208
864.6	-85.7209
864.7	-85.7209
864.8	-85.7209
864.9	-85.721
865	-85.721
865.1	-85.721
865.2	-85.721
865.3	-85.7211
865.4	-85.7211
865.5	-85.7211
865.6	-85.7212
865.7	-85.7212
865.8	-85.7212
865.9	-85.7212
866	-85.7213
866.1	-85.7213
866.2	-85.7213
866.3	-85.7214
866.4	-85.7214
866.5	-85.7214
866.6	-85.7214
866.7	-85.7215
866.8	-85.7215
866.9	-85.7215
867	-85.7216
867.1	-85.7216
867.2	-85.7216
867.3	-85.7216
867.4	-85.7217
867.5	-85.7217
867.6	-85.7217
867.7	-85.7218
867.8	-85.7218
867.9	-85.7218
868	-85.7218
868.1	-85.7219
868.2	-85.7219
868.3	-85.7219
868.4	-85.722
868.5	-85.722
868.6	-85.722
868.7	-85.7221
868.8	-85.7221
868.9	-85.7221
869	-85.7221
869.1	-85.7222
869.2	-85.7222
869.3	-85.7222
869.4	-85.7223
869.5	-85.7223
869.6	-85.7223
869.7	-85.7223
869.8	-85.7224
869.9	-85.7224
870	-85.7224
870.1	-85.7225
870.2	-85.7225
870.3	-85.7225
870.4	-85.7225
870.5	-85.7226
870.6	-85.7226
870.7	-85.7226
870.8	-85.7227
870.9	-85.7227
871	-85.7227
871.1	-85.7227
871.2	-85.7228
871.3	-85.7228
871.4	-85.7228
871.5	-85.7228
871.6	-85.7229
871.7	-85.7229
871.8	-85.7229
871.9	-85.723
872	-85.723
872.1	-85.723
872.2	-85.723
872.3	-85.7231
872.4	-85.7231
872.5	-85.7231
872.6	-85.7232
872.7	-85.7232
872.8	-85.7232
872.9	-85.7232
873	-85.7233
873.1	-85.7233
873.2	-85.7233
873.3	-85.7234
873.4	-85.7234
873.5	-85.7234
873.6	-85.7234
873.7	-85.7235
873.8	-85.7235
873.9	-85.7235
874	-85.7236
874.1	-85.7236
874.2	-85.7236
874.3	-85.7236
874.4	-85.7237
874.5	-85.7237
874.6	-85.7237
874.7	-85.7238
874.8	-85.7238
874.9	-85.7238
875	-85.7238
875.1	-85.7239
875.2	-85.7239
875.3	-85.7239
875.4	-85.7239
875.5	-85.724
875.6	-85.724
875.7	-85.724
875.8	-85.7241
875.9	-85.7241
876	-85.7241
876.1	-85.7241
876.2	-85.7242
876.3	-85.7242
876.4	-85.7242
876.5	-85.7243
876.6	-85.7243
876.7	-85.7243
876.8	-85.7243
876.9	-85.7244
877	-85.7244
877.1	-85.7244
877.2	-85.7244
877.3	-85.7245
877.4	-85.7245
877.5	-85.7245
877.6	-85.7246
877.7	-85.7246
877.8	-85.7246
877.9	-85.7246
878	-85.7247
878.1	-85.7247
878.2	-85.7247
878.3	-85.7248
878.4	-85.7248
878.5	-85.7248
878.6	-85.7248
878.7	-85.7249
878.8	-85.7249
878.9	-85.7249
879	-85.7249
879.1	-85.725
879.2	-85.725
879.3	-85.725
879.4	-85.7251
879.5	-85.7251
879.6	-85.7251
879.7	-85.7251
879.8	-85.7252
879.9	-85.7252
880	-85.7252
880.1	-85.7252
880.2	-85.7253
880.3	-85.7253
880.4	-85.7253
880.5	-85.7254
880.6	-85.7254
880.7	-85.7254
880.8	-85.7254
880.9	-85.7255
881	-85.7255
881.1	-85.7255
881.2	-85.7255
881.3	-85.7256
881.4	-85.7256
881.5	-85.7256
881.6	-85.7257
881.7	-85.7257
881.8	-85.7257
881.9	-85.7257
882	-85.7258
882.1	-85.7258
882.2	-85.7258
882.3	-85.7258
882.4	-85.7259
882.5	-85.7259
882.6	-85.7259
882.7	-85.726
882.8	-85.726
882.9	-85.726
883	-85.726
883.1	-85.7261
883.2	-85.7261
883.3	-85.7261
883.4	-85.7261
883.5	-85.7262
883.6	-85.7262
883.7	-85.7262
883.8	-85.7262
883.9	-85.7263
884	-85.7263
884.1	-85.7263
884.2	-85.7264
884.3	-85.7264
884.4	-85.7264
884.5	-85.7264
884.6	-85.7265
884.7	-85.7265
884.8	-85.7265
884.9	-85.7265
885	-85.7266
885.1	-85.7266
885.2	-85.7266
885.3	-85.7266
885.4	-85.7267
885.5	-85.7267
885.6	-85.7267
885.7	-85.7268
885.8	-85.7268
885.9	-85.7268
886	-85.7268
886.1	-85.7269
886.2	-85.7269
886.3	-85.7269
886.4	-85.7269
886.5	-85.727
886.6	-85.727
886.7	-85.727
886.8	-85.727
886.9	-85.7271
887	-85.7271
887.1	-85.7271
887.2	-85.7272
887.3	-85.7272
887.4	-85.7272
887.5	-85.7272
887.6	-85.7273
887.7	-85.7273
887.8	-85.7273
887.9	-85.7273
888	-85.7274
888.1	-85.7274
888.2	-85.7274
888.3	-85.7274
888.4	-85.7275
888.5	-85.7275
888.6	-85.7275
888.7	-85.7276
888.8	-85.7276
888.9	-85.7276
889	-85.7276
889.1	-85.7277
889.2	-85.7277
889.3	-85.7277
889.4	-85.7277
889.5	-85.7278
889.6	-85.7278
889.7	-85.7278
889.8	-85.7278
889.9	-85.7279
890	-85.7279
890.1	-85.7279
890.2	-85.7279
890.3	-85.728
890.4	-85.728
890.5	-85.728
890.6	-85.728
890.7	-85.7281
890.8	-85.7281
890.9	-85.7281
891	-85.7282
891.1	-85.7282
891.2	-85.7282
891.3	-85.7282
891.4	-85.7283
891.5	-85.7283
891.6	-85.7283
891.7	-85.7283
891.8	-85.7284
891.9	-85.7284
892	-85.7284
892.1	-85.7284
892.2	-85.7285
892.3	-85.7285
892.4	-85.7285
892.5	-85.7285
892.6	-85.7286
892.7	-85.7286
892.8	-85.7286
892.9	-85.7286
893	-85.7287
893.1	-85.7287
893.2	-85.7287
893.3	-85.7288
893.4	-85.7288
893.5	-85.7288
893.6	-85.7288
893.7	-85.7289
893.8	-85.7289
893.9	-85.7289
894	-85.7289
894.1	-85.729
894.2	-85.729
894.3	-85.729
894.4	-85.729
894.5	-85.7291
894.6	-85.7291
894.7	-85.7291
894.8	-85.7291
894.9	-85.7292
895	-85.7292
895.1	-85.7292
895.2	-85.7292
895.3	-85.7293
895.4	-85.7293
895.5	-85.7293
895.6	-85.7293
895.7	-85.7294
895.8	-85.7294
895.9	-85.7294
896	-85.7294
896.1	-85.7295
896.2	-85.7295
896.3	-85.7295
896.4	-85.7295
896.5	-85.7296
896.6	-85.7296
896.7	-85.7296
896.8	-85.7296
896.9	-85.7297
897	-85.7297
897.1	-85.7297
897.2	-85.7297
897.3	-85.7298
897.4	-85.7298
897.5	-85.7298
897.6	-85.7299
897.7	-85.7299
897.8	-85.7299
897.9	-85.7299
898	-85.73
898.1	-85.73
898.2	-85.73
898.3	-85.73
898.4	-85.7301
898.5	-85.7301
898.6	-85.7301
898.7	-85.7301
898.8	-85.7302
898.9	-85.7302
899	-85.7302
899.1	-85.7302
899.2	-85.7303
899.3	-85.7303
899.4	-85.7303
899.5	-85.7303
899.6	-85.7304
899.7	-85.7304
899.8	-85.7304
899.9	-85.7304
900	-85.7305
900.1	-85.7305
900.2	-85.7305
900.3	-85.7305
900.4	-85.7306
900.5	-85.7306
900.6	-85.7306
900.7	-85.7306
900.8	-85.7307
900.9	-85.7307
901	-85.7307
901.1	-85.7307
901.2	-85.7308
901.3	-85.7308
901.4	-85.7308
901.5	-85.7308
901.6	-85.7309
901.7	-85.7309
901.8	-85.7309
901.9	-85.7309
902	-85.731
902.1	-85.731
902.2	-85.731
902.3	-85.731
902.4	-85.7311
902.5	-85.7311
902.6	-85.7311
902.7	-85.7311
902.8	-85.7312
902.9	-85.7312
903	-85.7312
903.1	-85.7312
903.2	-85.7313
903.3	-85.7313
903.4	-85.7313
903.5	-85.7313
903.6	-85.7314
903.7	-85.7314
903.8	-85.7314
903.9	-85.7314
904	-85.7315
904.1	-85.7315
904.2	-85.7315
904.3	-85.7315
904.4	-85.7315
904.5	-85.7316
904.6	-85.7316
904.7	-85.7316
904.8	-85.7316
904.9	-85.7317
905	-85.7317
905.1	-85.7317
905.2	-85.7317
905.3	-85.7318
905.4	-85.7318
905.5	-85.7318
905.6	-85.7318
905.7	-85.7319
905.8	-85.7319
905.9	-85.7319
906	-85.7319
906.1	-85.732
906.2	-85.732
906.3	-85.732
906.4	-85.732
906.5	-85.7321
906.6	-85.7321
906.7	-85.7321
906.8	-85.7321
906.9	-85.7322
907	-85.7322
907.1	-85.7322
907.2	-85.7322
907.3	-85.7323
907.4	-85.7323
907.5	-85.7323
907.6	-85.7323
907.7	-85.7324
907.8	-85.7324
907.9	-85.7324
908	-85.7324
908.1	-85.7325
908.2	-85.7325
908.3	-85.7325
908.4	-85.7325
908.5	-85.7325
908.6	-85.7326
908.7	-85.7326
908.8	-85.7326
908.9	-85.7326
909	-85.7327
909.1	-85.7327
909.2	-85.7327
909.3	-85.7327
909.4	-85.7328
909.5	-85.7328
909.6	-85.7328
909.7	-85.7328
909.8	-85.7329
909.9	-85.7329
910	-85.7329
910.1	-85.7329
910.2	-85.733
910.3	-85.733
910.4	-85.733
910.5	-85.733
910.6	-85.7331
910.7	-85.7331
910.8	-85.7331
910.9	-85.7331
911	-85.7332
911.1	-85.7332
911.2	-85.7332
911.3	-85.7332
911.4	-85.7332
911.5	-85.7333
911.6	-85.7333
911.7	-85.7333
911.8	-85.7333
911.9	-85.7334
912	-85.7334
912.1	-85.7334
912.2	-85.7334
912.3	-85.7335
912.4	-85.7335
912.5	-85.7335
912.6	-85.7335
912.7	-85.7336
912.8	-85.7336
912.9	-85.7336
913	-85.7336
913.1	-85.7337
913.2	-85.7337
913.3	-85.7337
913.4	-85.7337
913.5	-85.7337
913.6	-85.7338
913.7	-85.7338
913.8	-85.7338
913.9	-85.7338
914	-85.7339
914.1	-85.7339
914.2	-85.7339
914.3	-85.7339
914.4	-85.734
914.5	-85.734
914.6	-85.734
914.7	-85.734
914.8	-85.7341
914.9	-85.7341
915	-85.7341
915.1	-85.7341
915.2	-85.7341
915.3	-85.7342
915.4	-85.7342
915.5	-85.7342
915.6	-85.7342
915.7	-85.7343
915.8	-85.7343
915.9	-85.7343
916	-85.7343
916.1	-85.7344
916.2	-85.7344
916.3	-85.7344
916.4	-85.7344
916.5	-85.7345
916.6	-85.7345
916.7	-85.7345
916.8	-85.7345
916.9	-85.7345
917	-85.7346
917.1	-85.7346
917.2	-85.7346
917.3	-85.7346
917.4	-85.7347
917.5	-85.7347
917.6	-85.7347
917.7	-85.7347
917.8	-85.7348
917.9	-85.7348
918	-85.7348
918.1	-85.7348
918.2	-85.7348
918.3	-85.7349
918.4	-85.7349
918.5	-85.7349
918.6	-85.7349
918.7	-85.735
918.8	-85.735
918.9	-85.735
919	-85.735
919.1	-85.7351
919.2	-85.7351
919.3	-85.7351
919.4	-85.7351
919.5	-85.7351
919.6	-85.7352
919.7	-85.7352
919.8	-85.7352
919.9	-85.7352
920	-85.7353
920.1	-85.7353
920.2	-85.7353
920.3	-85.7353
920.4	-85.7354
920.5	-85.7354
920.6	-85.7354
920.7	-85.7354
920.8	-85.7354
920.9	-85.7355
921	-85.7355
921.1	-85.7355
921.2	-85.7355
921.3	-85.7356
921.4	-85.7356
921.5	-85.7356
921.6	-85.7356
921.7	-85.7357
921.8	-85.7357
921.9	-85.7357
922	-85.7357
922.1	-85.7357
922.2	-85.7358
922.3	-85.7358
922.4	-85.7358
922.5	-85.7358
922.6	-85.7359
922.7	-85.7359
922.8	-85.7359
922.9	-85.7359
923	-85.736
923.1	-85.736
923.2	-85.736
923.3	-85.736
923.4	-85.736
923.5	-85.7361
923.6	-85.7361
923.7	-85.7361
923.8	-85.7361
923.9	-85.7362
924	-85.7362
924.1	-85.7362
924.2	-85.7362
924.3	-85.7362
924.4	-85.7363
924.5	-85.7363
924.6	-85.7363
924.7	-85.7363
924.8	-85.7364
924.9	-85.7364
925	-85.7364
925.1	-85.7364
925.2	-85.7364
925.3	-85.7365
925.4	-85.7365
925.5	-85.7365
925.6	-85.7365
925.7	-85.7366
925.8	-85.7366
925.9	-85.7366
926	-85.7366
926.1	-85.7366
926.2	-85.7367
926.3	-85.7367
926.4	-85.7367
926.5	-85.7367
926.6	-85.7368
926.7	-85.7368
926.8	-85.7368
926.9	-85.7368
927	-85.7369
927.1	-85.7369
927.2	-85.7369
927.3	-85.7369
927.4	-85.7369
927.5	-85.737
927.6	-85.737
927.7	-85.737
927.8	-85.737
927.9	-85.7371
928	-85.7371
928.1	-85.7371
928.2	-85.7371
928.3	-85.7371
928.4	-85.7372
928.5	-85.7372
928.6	-85.7372
928.7	-85.7372
928.8	-85.7373
928.9	-85.7373
929	-85.7373
929.1	-85.7373
929.2	-85.7373
929.3	-85.7374
929.4	-85.7374
929.5	-85.7374
929.6	-85.7374
929.7	-85.7375
929.8	-85.7375
929.9	-85.7375
930	-85.7375
930.1	-85.7375
930.2	-85.7376
930.3	-85.7376
930.4	-85.7376
930.5	-85.7376
930.6	-85.7376
930.7	-85.7377
930.8	-85.7377
930.9	-85.7377
931	-85.7377
931.1	-85.7378
931.2	-85.7378
931.3	-85.7378
931.4	-85.7378
931.5	-85.7378
931.6	-85.7379
931.7	-85.7379
931.8	-85.7379
931.9	-85.7379
932	-85.738
932.1	-85.738
932.2	-85.738
932.3	-85.738
932.4	-85.738
932.5	-85.7381
932.6	-85.7381
932.7	-85.7381
932.8	-85.7381
932.9	-85.7382
933	-85.7382
933.1	-85.7382
933.2	-85.7382
933.3	-85.7382
933.4	-85.7383
933.5	-85.7383
933.6	-85.7383
933.7	-85.7383
933.8	-85.7383
933.9	-85.7384
934	-85.7384
934.1	-85.7384
934.2	-85.7384
934.3	-85.7385
934.4	-85.7385
934.5	-85.7385
934.6	-85.7385
934.7	-85.7385
934.8	-85.7386
934.9	-85.7386
935	-85.7386
935.1	-85.7386
935.2	-85.7387
935.3	-85.7387
935.4	-85.7387
935.5	-85.7387
935.6	-85.7387
935.7	-85.7388
935.8	-85.7388
935.9	-85.7388
936	-85.7388
936.1	-85.7388
936.2	-85.7389
936.3	-85.7389
936.4	-85.7389
936.5	-85.7389
936.6	-85.739
936.7	-85.739
936.8	-85.739
936.9	-85.739
937	-85.739
937.1	-85.7391
937.2	-85.7391
937.3	-85.7391
937.4	-85.7391
937.5	-85.7391
937.6	-85.7392
937.7	-85.7392
937.8	-85.7392
937.9	-85.7392
938	-85.7393
938.1	-85.7393
938.2	-85.7393
938.3	-85.7393
938.4	-85.7393
938.5	-85.7394
938.6	-85.7394
938.7	-85.7394
938.8	-85.7394
938.9	-85.7394
939	-85.7395
939.1	-85.7395
939.2	-85.7395
939.3	-85.7395
939.4	-85.7395
939.5	-85.7396
939.6	-85.7396
939.7	-85.7396
939.8	-85.7396
939.9	-85.7397
940	-85.7397
940.1	-85.7397
940.2	-85.7397
940.3	-85.7397
940.4	-85.7398
940.5	-85.7398
940.6	-85.7398
940.7	-85.7398
940.8	-85.7398
940.9	-85.7399
941	-85.7399
941.1	-85.7399
941.2	-85.7399
941.3	-85.7399
941.4	-85.74
941.5	-85.74
941.6	-85.74
941.7	-85.74
941.8	-85.7401
941.9	-85.7401
942	-85.7401
942.1	-85.7401
942.2	-85.7401
942.3	-85.7402
942.4	-85.7402
942.5	-85.7402
942.6	-85.7402
942.7	-85.7402
942.8	-85.7403
942.9	-85.7403
943	-85.7403
943.1	-85.7403
943.2	-85.7403
943.3	-85.7404
943.4	-85.7404
943.5	-85.7404
943.6	-85.7404
943.7	-85.7405
943.8	-85.7405
943.9	-85.7405
944	-85.7405
944.1	-85.7405
944.2	-85.7406
944.3	-85.7406
944.4	-85.7406
944.5	-85.7406
944.6	-85.7406
944.7	-85.7407
944.8	-85.7407
944.9	-85.7407
945	-85.7407
945.1	-85.7407
945.2	-85.7408
945.3	-85.7408
945.4	-85.7408
945.5	-85.7408
945.6	-85.7408
945.7	-85.7409
945.8	-85.7409
945.9	-85.7409
946	-85.7409
946.1	-85.7409
946.2	-85.741
946.3	-85.741
946.4	-85.741
946.5	-85.741
946.6	-85.7411
946.7	-85.7411
946.8	-85.7411
946.9	-85.7411
947	-85.7411
947.1	-85.7412
947.2	-85.7412
947.3	-85.7412
947.4	-85.7412
947.5	-85.7412
947.6	-85.7413
947.7	-85.7413
947.8	-85.7413
947.9	-85.7413
948	-85.7413
948.1	-85.7414
948.2	-85.7414
948.3	-85.7414
948.4	-85.7414
948.5	-85.7414
948.6	-85.7415
948.7	-85.7415
948.8	-85.7415
948.9	-85.7415
949	-85.7415
949.1	-85.7416
949.2	-85.7416
949.3	-85.7416
949.4	-85.7416
949.5	-85.7416
949.6	-85.7417
949.7	-85.7417
949.8	-85.7417
949.9	-85.7417
950	-85.7417
950.1	-85.7418
950.2	-85.7418
950.3	-85.7418
950.4	-85.7418
950.5	-85.7418
950.6	-85.7419
950.7	-85.7419
950.8	-85.7419
950.9	-85.7419
951	-85.7419
951.1	-85.742
951.2	-85.742
951.3	-85.742
951.4	-85.742
951.5	-85.742
951.6	-85.7421
951.7	-85.7421
951.8	-85.7421
951.9	-85.7421
952	-85.7421
952.1	-85.7422
952.2	-85.7422
952.3	-85.7422
952.4	-85.7422
952.5	-85.7422
952.6	-85.7423
952.7	-85.7423
952.8	-85.7423
952.9	-85.7423
953	-85.7423
953.1	-85.7424
953.2	-85.7424
953.3	-85.7424
953.4	-85.7424
953.5	-85.7424
953.6	-85.7425
953.7	-85.7425
953.8	-85.7425
953.9	-85.7425
954	-85.7425
954.1	-85.7426
954.2	-85.7426
954.3	-85.7426
954.4	-85.7426
954.5	-85.7426
954.6	-85.7427
954.7	-85.7427
954.8	-85.7427
954.9	-85.7427
955	-85.7427
955.1	-85.7428
955.2	-85.7428
955.3	-85.7428
955.4	-85.7428
955.5	-85.7428
955.6	-85.7429
955.7	-85.7429
955.8	-85.7429
955.9	-85.7429
956	-85.7429
956.1	-85.743
956.2	-85.743
956.3	-85.743
956.4	-85.743
956.5	-85.743
956.6	-85.7431
956.7	-85.7431
956.8	-85.7431
956.9	-85.7431
957	-85.7431
957.1	-85.7432
957.2	-85.7432
957.3	-85.7432
957.4	-85.7432
957.5	-85.7432
957.6	-85.7433
957.7	-85.7433
957.8	-85.7433
957.9	-85.7433
958	-85.7433
958.1	-85.7434
958.2	-85.7434
958.3	-85.7434
958.4	-85.7434
958.5	-85.7434
958.6	-85.7435
958.7	-85.7435
958.8	-85.7435
958.9	-85.7435
959	-85.7435
959.1	-85.7435
959.2	-85.7436
959.3	-85.7436
959.4	-85.7436
959.5	-85.7436
959.6	-85.7436
959.7	-85.7437
959.8	-85.7437
959.9	-85.7437
960	-85.7437
960.1	-85.7437
960.2	-85.7438
960.3	-85.7438
960.4	-85.7438
960.5	-85.7438
960.6	-85.7438
960.7	-85.7439
960.8	-85.7439
960.9	-85.7439
961	-85.7439
961.1	-85.7439
961.2	-85.744
961.3	-85.744
961.4	-85.744
961.5	-85.744
961.6	-85.744
961.7	-85.7441
961.8	-85.7441
961.9	-85.7441
962	-85.7441
962.1	-85.7441
962.2	-85.7441
962.3	-85.7442
962.4	-85.7442
962.5	-85.7442
962.6	-85.7442
962.7	-85.7442
962.8	-85.7443
962.9	-85.7443
963	-85.7443
963.1	-85.7443
963.2	-85.7443
963.3	-85.7444
963.4	-85.7444
963.5	-85.7444
963.6	-85.7444
963.7	-85.7444
963.8	-85.7445
963.9	-85.7445
964	-85.7445
964.1	-85.7445
964.2	-85.7445
964.3	-85.7446
964.4	-85.7446
964.5	-85.7446
964.6	-85.7446
964.7	-85.7446
964.8	-85.7446
964.9	-85.7447
965	-85.7447
965.1	-85.7447
965.2	-85.7447
965.3	-85.7447
965.4	-85.7448
965.5	-85.7448
965.6	-85.7448
965.7	-85.7448
965.8	-85.7448
965.9	-85.7449
966	-85.7449
966.1	-85.7449
966.2	-85.7449
966.3	-85.7449
966.4	-85.7449
966.5	-85.745
966.6	-85.745
966.7	-85.745
966.8	-85.745
966.9	-85.745
967	-85.7451
967.1	-85.7451
967.2	-85.7451
967.3	-85.7451
967.4	-85.7451
967.5	-85.7452
967.6	-85.7452
967.7	-85.7452
967.8	-85.7452
967.9	-85.7452
968	-85.7452
968.1	-85.7453
968.2	-85.7453
968.3	-85.7453
968.4	-85.7453
968.5	-85.7453
968.6	-85.7454
968.7	-85.7454
968.8	-85.7454
968.9	-85.7454
969	-85.7454
969.1	-85.7455
969.2	-85.7455
969.3	-85.7455
969.4	-85.7455
969.5	-85.7455
969.6	-85.7455
969.7	-85.7456
969.8	-85.7456
969.9	-85.7456
970	-85.7456
970.1	-85.7456
970.2	-85.7457
970.3	-85.7457
970.4	-85.7457
970.5	-85.7457
970.6	-85.7457
970.7	-85.7458
970.8	-85.7458
970.9	-85.7458
971	-85.7458
971.1	-85.7458
971.2	-85.7458
971.3	-85.7459
971.4	-85.7459
971.5	-85.7459
971.6	-85.7459
971.7	-85.7459
971.8	-85.746
971.9	-85.746
972	-85.746
972.1	-85.746
972.2	-85.746
972.3	-85.746
972.4	-85.7461
972.5	-85.7461
972.6	-85.7461
972.7	-85.7461
972.8	-85.7461
972.9	-85.7462
973	-85.7462
973.1	-85.7462
973.2	-85.7462
973.3	-85.7462
973.4	-85.7462
973.5	-85.7463
973.6	-85.7463
973.7	-85.7463
973.8	-85.7463
973.9	-85.7463
974	-85.7464
974.1	-85.7464
974.2	-85.7464
974.3	-85.7464
974.4	-85.7464
974.5	-85.7464
974.6	-85.7465
974.7	-85.7465
974.8	-85.7465
974.9	-85.7465
975	-85.7465
975.1	-85.7466
975.2	-85.7466
975.3	-85.7466
975.4	-85.7466
975.5	-85.7466
975.6	-85.7466
975.7	-85.7467
975.8	-85.7467
975.9	-85.7467
976	-85.7467
976.1	-85.7467
976.2	-85.7468
976.3	-85.7468
976.4	-85.7468
976.5	-85.7468
976.6	-85.7468
976.7	-85.7468
976.8	-85.7469
976.9	-85.7469
977	-85.7469
977.1	-85.7469
977.2	-85.7469
977.3	-85.747
977.4	-85.747
977.5	-85.747
977.6	-85.747
977.7	-85.747
977.8	-85.747
977.9	-85.7471
978	-85.7471
978.1	-85.7471
978.2	-85.7471
978.3	-85.7471
978.4	-85.7472
978.5	-85.7472
978.6	-85.7472
978.7	-85.7472
978.8	-85.7472
978.9	-85.7472
979	-85.7473
979.1	-85.7473
979.2	-85.7473
979.3	-85.7473
979.4	-85.7473
979.5	-85.7473
979.6	-85.7474
979.7	-85.7474
979.8	-85.7474
979.9	-85.7474
980	-85.7474
980.1	-85.7475
980.2	-85.7475
980.3	-85.7475
980.4	-85.7475
980.5	-85.7475
980.6	-85.7475
980.7	-85.7476
980.8	-85.7476
980.9	-85.7476
981	-85.7476
981.1	-85.7476
981.2	-85.7477
981.3	-85.7477
981.4	-85.7477
981.5	-85.7477
981.6	-85.7477
981.7	-85.7477
981.8	-85.7478
981.9	-85.7478
982	-85.7478
982.1	-85.7478
982.2	-85.7478
982.3	-85.7478
982.4	-85.7479
982.5	-85.7479
982.6	-85.7479
982.7	-85.7479
982.8	-85.7479
982.9	-85.748
983	-85.748
983.1	-85.748
983.2	-85.748
983.3	-85.748
983.4	-85.748
983.5	-85.7481
983.6	-85.7481
983.7	-85.7481
983.8	-85.7481
983.9	-85.7481
984	-85.7481
984.1	-85.7482
984.2	-85.7482
984.3	-85.7482
984.4	-85.7482
984.5	-85.7482
984.6	-85.7482
984.7	-85.7483
984.8	-85.7483
984.9	-85.7483
985	-85.7483
985.1	-85.7483
985.2	-85.7484
985.3	-85.7484
985.4	-85.7484
985.5	-85.7484
985.6	-85.7484
985.7	-85.7484
985.8	-85.7485
985.9	-85.7485
986	-85.7485
986.1	-85.7485
986.2	-85.7485
986.3	-85.7485
986.4	-85.7486
986.5	-85.7486
986.6	-85.7486
986.7	-85.7486
986.8	-85.7486
986.9	-85.7486
987	-85.7487
987.1	-85.7487
987.2	-85.7487
987.3	-85.7487
987.4	-85.7487
987.5	-85.7488
987.6	-85.7488
987.7	-85.7488
987.8	-85.7488
987.9	-85.7488
988	-85.7488
988.1	-85.7489
988.2	-85.7489
988.3	-85.7489
988.4	-85.7489
988.5	-85.7489
988.6	-85.7489
988.7	-85.749
988.8	-85.749
988.9	-85.749
989	-85.749
989.1	-85.749
989.2	-85.749
989.3	-85.7491
989.4	-85.7491
989.5	-85.7491
989.6	-85.7491
989.7	-85.7491
989.8	-85.7491
989.9	-85.7492
990	-85.7492
990.1	-85.7492
990.2	-85.7492
990.3	-85.7492
990.4	-85.7492
990.5	-85.7493
990.6	-85.7493
990.7	-85.7493
990.8	-85.7493
990.9	-85.7493
991	-85.7493
991.1	-85.7494
991.2	-85.7494
991.3	-85.7494
991.4	-85.7494
991.5	-85.7494
991.6	-85.7495
991.7	-85.7495
991.8	-85.7495
991.9	-85.7495
992	-85.7495
992.1	-85.7495
992.2	-85.7496
992.3	-85.7496
992.4	-85.7496
992.5	-85.7496
992.6	-85.7496
992.7	-85.7496
992.8	-85.7497
992.9	-85.7497
993	-85.7497
993.1	-85.7497
993.2	-85.7497
993.3	-85.7497
993.4	-85.7498
993.5	-85.7498
993.6	-85.7498
993.7	-85.7498
993.8	-85.7498
993.9	-85.7498
994	-85.7499
994.1	-85.7499
994.2	-85.7499
994.3	-85.7499
994.4	-85.7499
994.5	-85.7499
994.6	-85.75
994.7	-85.75
994.8	-85.75
994.9	-85.75
995	-85.75
995.1	-85.75
995.2	-85.7501
995.3	-85.7501
995.4	-85.7501
995.5	-85.7501
995.6	-85.7501
995.7	-85.7501
995.8	-85.7502
995.9	-85.7502
996	-85.7502
996.1	-85.7502
996.2	-85.7502
996.3	-85.7502
996.4	-85.7503
996.5	-85.7503
996.6	-85.7503
996.7	-85.7503
996.8	-85.7503
996.9	-85.7503
997	-85.7504
997.1	-85.7504
997.2	-85.7504
997.3	-85.7504
997.4	-85.7504
997.5	-85.7504
997.6	-85.7505
997.7	-85.7505
997.8	-85.7505
997.9	-85.7505
998	-85.7505
998.1	-85.7505
998.2	-85.7506
998.3	-85.7506
998.4	-85.7506
998.5	-85.7506
998.6	-85.7506
998.7	-85.7506
998.8	-85.7507
998.9	-85.7507
999	-85.7507
999.1	-85.7507
999.2	-85.7507
999.3	-85.7507
999.4	-85.7507
999.5	-85.7508
999.6	-85.7508
999.7	-85.7508
999.8	-85.7508
999.9	-85.7508
1000	-85.7508
